Timestamp,participant_id,study,section,trial_type,rt,base,option1,option2,left_image,right_image,choice_index,,chosen_image,is_option1,is_option2,age,gender,feedback
2025-10-21T09:01:01.397Z,76180382-df82-47d0-bd59-1d6193972ee5,image_pairs_bilingual_v1,consent,html-button-response,1644,,,,,,,,,,,,,
2025-10-21T09:01:01.397Z,76180382-df82-47d0-bd59-1d6193972ee5,image_pairs_bilingual_v1,intro,html-button-response,8186,,,,,,,,,,,,,
2025-10-21T09:01:01.397Z,76180382-df82-47d0-bd59-1d6193972ee5,image_pairs_bilingual_v1,demographics,survey-html-form,11733,,,,,,,,,,,20,m,
2025-10-21T09:01:01.397Z,76180382-df82-47d0-bd59-1d6193972ee5,image_pairs_bilingual_v1,trial,html-button-response,4423,turm.jpg,turm1.jpg,turm2.jpg,turm1.jpg,turm2.jpg,,,turm2.jpg,,,,,
2025-10-21T09:01:01.397Z,76180382-df82-47d0-bd59-1d6193972ee5,image_pairs_bilingual_v1,trial,html-button-response,3305,weg.jpg,weg0.jpg,weg3.jpg,weg0.jpg,weg3.jpg,,,weg3.jpg,,,,,
2025-10-21T09:01:01.397Z,76180382-df82-47d0-bd59-1d6193972ee5,image_pairs_bilingual_v1,trial,html-button-response,3141,hütte.jpg,hütte0.jpg,hütte3.jpg,hütte0.jpg,hütte3.jpg,,,hütte3.jpg,,,,,
2025-10-21T09:01:01.397Z,76180382-df82-47d0-bd59-1d6193972ee5,image_pairs_bilingual_v1,trial,html-button-response,2150,baum.jpg,baum1.jpg,baum3.jpg,baum3.jpg,baum1.jpg,,,baum1.jpg,,,,,
2025-10-21T09:01:01.397Z,76180382-df82-47d0-bd59-1d6193972ee5,image_pairs_bilingual_v1,trial,html-button-response,2845,berge.jpg,berge0.jpg,berge2.jpg,berge2.jpg,berge0.jpg,,,berge0.jpg,,,,,
2025-10-21T09:01:01.397Z,76180382-df82-47d0-bd59-1d6193972ee5,image_pairs_bilingual_v1,trial,html-button-response,2947,schnee.jpg,schnee2.jpg,schnee3.jpg,schnee2.jpg,schnee3.jpg,,,schnee2.jpg,,,,,
2025-10-21T09:01:01.397Z,76180382-df82-47d0-bd59-1d6193972ee5,image_pairs_bilingual_v1,trial,html-button-response,4134,bahn.jpg,bahn2.jpg,bahn3.jpg,bahn3.jpg,bahn2.jpg,,,bahn2.jpg,,,,,
2025-10-21T09:01:01.397Z,76180382-df82-47d0-bd59-1d6193972ee5,image_pairs_bilingual_v1,trial,html-button-response,1387,hütte.jpg,hütte0.jpg,hütte1.jpg,hütte1.jpg,hütte0.jpg,,,hütte1.jpg,,,,,
2025-10-21T09:01:01.397Z,76180382-df82-47d0-bd59-1d6193972ee5,image_pairs_bilingual_v1,trial,html-button-response,1394,weg.jpg,weg0.jpg,weg1.jpg,weg1.jpg,weg0.jpg,,,weg1.jpg,,,,,
2025-10-21T09:01:01.397Z,76180382-df82-47d0-bd59-1d6193972ee5,image_pairs_bilingual_v1,trial,html-button-response,9091,haus.jpg,haus1.jpg,haus3.jpg,haus3.jpg,haus1.jpg,,,haus1.jpg,,,,,
2025-10-21T09:01:01.397Z,76180382-df82-47d0-bd59-1d6193972ee5,image_pairs_bilingual_v1,trial,html-button-response,6024,bahn.jpg,bahn0.jpg,bahn1.jpg,bahn0.jpg,bahn1.jpg,,,bahn1.jpg,,,,,
2025-10-21T09:01:01.397Z,76180382-df82-47d0-bd59-1d6193972ee5,image_pairs_bilingual_v1,trial,html-button-response,2950,baum.jpg,baum2.jpg,baum3.jpg,baum2.jpg,baum3.jpg,,,baum2.jpg,,,,,
2025-10-21T09:01:01.397Z,76180382-df82-47d0-bd59-1d6193972ee5,image_pairs_bilingual_v1,trial,html-button-response,4340,bahn.jpg,bahn0.jpg,bahn3.jpg,bahn3.jpg,bahn0.jpg,,,bahn0.jpg,,,,,
2025-10-21T09:01:01.397Z,76180382-df82-47d0-bd59-1d6193972ee5,image_pairs_bilingual_v1,trial,html-button-response,1779,haus.jpg,haus0.jpg,haus2.jpg,haus0.jpg,haus2.jpg,,,haus2.jpg,,,,,
2025-10-21T09:01:01.397Z,76180382-df82-47d0-bd59-1d6193972ee5,image_pairs_bilingual_v1,trial,html-button-response,1489,baum.jpg,baum0.jpg,baum3.jpg,baum0.jpg,baum3.jpg,,,baum3.jpg,,,,,
2025-10-21T09:01:01.397Z,76180382-df82-47d0-bd59-1d6193972ee5,image_pairs_bilingual_v1,trial,html-button-response,2407,bäume.jpg,bäume0.jpg,bäume1.jpg,bäume0.jpg,bäume1.jpg,,,bäume1.jpg,,,,,
2025-10-21T09:01:01.397Z,76180382-df82-47d0-bd59-1d6193972ee5,image_pairs_bilingual_v1,trial,html-button-response,10359,bäume.jpg,bäume1.jpg,bäume2.jpg,bäume2.jpg,bäume1.jpg,,,bäume2.jpg,,,,,
2025-10-21T09:01:01.397Z,76180382-df82-47d0-bd59-1d6193972ee5,image_pairs_bilingual_v1,trial,html-button-response,913,berge.jpg,berge0.jpg,berge1.jpg,berge1.jpg,berge0.jpg,,,berge1.jpg,,,,,
2025-10-21T09:01:01.397Z,76180382-df82-47d0-bd59-1d6193972ee5,image_pairs_bilingual_v1,trial,html-button-response,2687,haus.jpg,haus2.jpg,haus3.jpg,haus3.jpg,haus2.jpg,,,haus2.jpg,,,,,
2025-10-21T09:01:01.397Z,76180382-df82-47d0-bd59-1d6193972ee5,image_pairs_bilingual_v1,trial,html-button-response,2467,schnee.jpg,schnee1.jpg,schnee3.jpg,schnee1.jpg,schnee3.jpg,,,schnee3.jpg,,,,,
2025-10-21T09:01:01.397Z,76180382-df82-47d0-bd59-1d6193972ee5,image_pairs_bilingual_v1,trial,html-button-response,4503,berg.jpg,berg0.jpg,berg2.jpg,berg2.jpg,berg0.jpg,,,berg2.jpg,,,,,
2025-10-21T09:01:01.397Z,76180382-df82-47d0-bd59-1d6193972ee5,image_pairs_bilingual_v1,trial,html-button-response,2519,haus.jpg,haus0.jpg,haus1.jpg,haus0.jpg,haus1.jpg,,,haus1.jpg,,,,,
2025-10-21T09:01:01.397Z,76180382-df82-47d0-bd59-1d6193972ee5,image_pairs_bilingual_v1,trial,html-button-response,2255,hütte.jpg,hütte2.jpg,hütte3.jpg,hütte2.jpg,hütte3.jpg,,,hütte3.jpg,,,,,
2025-10-21T09:01:01.397Z,76180382-df82-47d0-bd59-1d6193972ee5,image_pairs_bilingual_v1,trial,html-button-response,2005,bäume.jpg,bäume0.jpg,bäume2.jpg,bäume2.jpg,bäume0.jpg,,,bäume2.jpg,,,,,
2025-10-21T09:01:01.397Z,76180382-df82-47d0-bd59-1d6193972ee5,image_pairs_bilingual_v1,trial,html-button-response,1114,berg.jpg,berg2.jpg,berg3.jpg,berg2.jpg,berg3.jpg,,,berg3.jpg,,,,,
2025-10-21T09:01:01.397Z,76180382-df82-47d0-bd59-1d6193972ee5,image_pairs_bilingual_v1,trial,html-button-response,1789,bäume.jpg,bäume0.jpg,bäume3.jpg,bäume0.jpg,bäume3.jpg,,,bäume3.jpg,,,,,
2025-10-21T09:01:01.397Z,76180382-df82-47d0-bd59-1d6193972ee5,image_pairs_bilingual_v1,trial,html-button-response,1117,haus.jpg,haus0.jpg,haus3.jpg,haus0.jpg,haus3.jpg,,,haus3.jpg,,,,,
2025-10-21T09:01:01.397Z,76180382-df82-47d0-bd59-1d6193972ee5,image_pairs_bilingual_v1,trial,html-button-response,1603,baum.jpg,baum0.jpg,baum2.jpg,baum0.jpg,baum2.jpg,,,baum2.jpg,,,,,
2025-10-21T09:01:01.397Z,76180382-df82-47d0-bd59-1d6193972ee5,image_pairs_bilingual_v1,trial,html-button-response,762,berg.jpg,berg0.jpg,berg3.jpg,berg0.jpg,berg3.jpg,,,berg3.jpg,,,,,
2025-10-21T09:01:01.397Z,76180382-df82-47d0-bd59-1d6193972ee5,image_pairs_bilingual_v1,trial,html-button-response,3330,weg.jpg,weg0.jpg,weg2.jpg,weg2.jpg,weg0.jpg,,,weg0.jpg,,,,,
2025-10-21T09:01:01.397Z,76180382-df82-47d0-bd59-1d6193972ee5,image_pairs_bilingual_v1,trial,html-button-response,5763,schnee.jpg,schnee0.jpg,schnee1.jpg,schnee0.jpg,schnee1.jpg,,,schnee0.jpg,,,,,
2025-10-21T09:01:01.397Z,76180382-df82-47d0-bd59-1d6193972ee5,image_pairs_bilingual_v1,trial,html-button-response,2518,schnee.jpg,schnee1.jpg,schnee2.jpg,schnee1.jpg,schnee2.jpg,,,schnee2.jpg,,,,,
2025-10-21T09:01:01.397Z,76180382-df82-47d0-bd59-1d6193972ee5,image_pairs_bilingual_v1,trial,html-button-response,1849,bäume.jpg,bäume2.jpg,bäume3.jpg,bäume3.jpg,bäume2.jpg,,,bäume3.jpg,,,,,
2025-10-21T09:01:01.397Z,76180382-df82-47d0-bd59-1d6193972ee5,image_pairs_bilingual_v1,trial,html-button-response,1154,hütte.jpg,hütte1.jpg,hütte2.jpg,hütte1.jpg,hütte2.jpg,,,hütte1.jpg,,,,,
2025-10-21T09:01:01.397Z,76180382-df82-47d0-bd59-1d6193972ee5,image_pairs_bilingual_v1,trial,html-button-response,2999,berge.jpg,berge0.jpg,berge3.jpg,berge3.jpg,berge0.jpg,,,berge3.jpg,,,,,
2025-10-21T09:01:01.397Z,76180382-df82-47d0-bd59-1d6193972ee5,image_pairs_bilingual_v1,trial,html-button-response,2967,hütte.jpg,hütte1.jpg,hütte3.jpg,hütte3.jpg,hütte1.jpg,,,hütte3.jpg,,,,,
2025-10-21T09:01:01.397Z,76180382-df82-47d0-bd59-1d6193972ee5,image_pairs_bilingual_v1,trial,html-button-response,1046,bäume.jpg,bäume1.jpg,bäume3.jpg,bäume1.jpg,bäume3.jpg,,,bäume3.jpg,,,,,
2025-10-21T09:01:01.397Z,76180382-df82-47d0-bd59-1d6193972ee5,image_pairs_bilingual_v1,trial,html-button-response,8734,berg.jpg,berg1.jpg,berg2.jpg,berg1.jpg,berg2.jpg,,,berg2.jpg,,,,,
2025-10-21T09:01:01.397Z,76180382-df82-47d0-bd59-1d6193972ee5,image_pairs_bilingual_v1,trial,html-button-response,1714,schnee.jpg,schnee0.jpg,schnee2.jpg,schnee0.jpg,schnee2.jpg,,,schnee2.jpg,,,,,
2025-10-21T09:01:01.397Z,76180382-df82-47d0-bd59-1d6193972ee5,image_pairs_bilingual_v1,trial,html-button-response,1160,berge.jpg,berge1.jpg,berge2.jpg,berge1.jpg,berge2.jpg,,,berge1.jpg,,,,,
2025-10-21T09:01:01.397Z,76180382-df82-47d0-bd59-1d6193972ee5,image_pairs_bilingual_v1,trial,html-button-response,2352,haus.jpg,haus1.jpg,haus2.jpg,haus1.jpg,haus2.jpg,,,haus2.jpg,,,,,
2025-10-21T09:01:01.397Z,76180382-df82-47d0-bd59-1d6193972ee5,image_pairs_bilingual_v1,trial,html-button-response,1487,turm.jpg,turm0.jpg,turm3.jpg,turm3.jpg,turm0.jpg,,,turm3.jpg,,,,,
2025-10-21T09:01:01.397Z,76180382-df82-47d0-bd59-1d6193972ee5,image_pairs_bilingual_v1,trial,html-button-response,940,turm.jpg,turm2.jpg,turm3.jpg,turm2.jpg,turm3.jpg,,,turm3.jpg,,,4423,,
2025-10-21T09:01:01.397Z,76180382-df82-47d0-bd59-1d6193972ee5,image_pairs_bilingual_v1,trial,html-button-response,1333,turm.jpg,turm1.jpg,turm3.jpg,turm1.jpg,turm3.jpg,,,turm3.jpg,,,3305,,
2025-10-21T09:01:01.397Z,76180382-df82-47d0-bd59-1d6193972ee5,image_pairs_bilingual_v1,trial,html-button-response,6046,berge.jpg,berge2.jpg,berge3.jpg,berge3.jpg,berge2.jpg,,,berge3.jpg,,,3141,,
2025-10-21T09:01:01.397Z,76180382-df82-47d0-bd59-1d6193972ee5,image_pairs_bilingual_v1,trial,html-button-response,1100,turm.jpg,turm0.jpg,turm1.jpg,turm0.jpg,turm1.jpg,,,turm1.jpg,,,2150,,
2025-10-21T09:01:01.397Z,76180382-df82-47d0-bd59-1d6193972ee5,image_pairs_bilingual_v1,trial,html-button-response,5849,weg.jpg,weg1.jpg,weg3.jpg,weg3.jpg,weg1.jpg,,,weg1.jpg,,,2845,,
2025-10-21T09:01:01.397Z,76180382-df82-47d0-bd59-1d6193972ee5,image_pairs_bilingual_v1,trial,html-button-response,1943,berg.jpg,berg0.jpg,berg1.jpg,berg1.jpg,berg0.jpg,,,berg1.jpg,,,2947,,
2025-10-21T09:01:01.397Z,76180382-df82-47d0-bd59-1d6193972ee5,image_pairs_bilingual_v1,trial,html-button-response,881,bahn.jpg,bahn1.jpg,bahn3.jpg,bahn3.jpg,bahn1.jpg,,,bahn1.jpg,,,4134,,
2025-10-21T09:01:01.397Z,76180382-df82-47d0-bd59-1d6193972ee5,image_pairs_bilingual_v1,trial,html-button-response,2762,berge.jpg,berge1.jpg,berge3.jpg,berge1.jpg,berge3.jpg,,,berge1.jpg,,,1387,,
2025-10-21T09:01:01.397Z,76180382-df82-47d0-bd59-1d6193972ee5,image_pairs_bilingual_v1,trial,html-button-response,3110,baum.jpg,baum0.jpg,baum1.jpg,baum1.jpg,baum0.jpg,,,baum1.jpg,,,1394,,
2025-10-21T09:01:01.397Z,76180382-df82-47d0-bd59-1d6193972ee5,image_pairs_bilingual_v1,trial,html-button-response,1616,hütte.jpg,hütte0.jpg,hütte2.jpg,hütte0.jpg,hütte2.jpg,,,hütte0.jpg,,,9091,,
2025-10-21T09:01:01.397Z,76180382-df82-47d0-bd59-1d6193972ee5,image_pairs_bilingual_v1,trial,html-button-response,3541,bahn.jpg,bahn1.jpg,bahn2.jpg,bahn2.jpg,bahn1.jpg,,,bahn1.jpg,,,6024,,
2025-10-21T09:01:01.397Z,76180382-df82-47d0-bd59-1d6193972ee5,image_pairs_bilingual_v1,trial,html-button-response,929,baum.jpg,baum1.jpg,baum2.jpg,baum2.jpg,baum1.jpg,,,baum1.jpg,,,2950,,
2025-10-21T09:01:01.397Z,76180382-df82-47d0-bd59-1d6193972ee5,image_pairs_bilingual_v1,trial,html-button-response,1127,bahn.jpg,bahn0.jpg,bahn2.jpg,bahn0.jpg,bahn2.jpg,,,bahn2.jpg,,,4340,,
2025-10-21T09:01:01.397Z,76180382-df82-47d0-bd59-1d6193972ee5,image_pairs_bilingual_v1,trial,html-button-response,1010,turm.jpg,turm0.jpg,turm2.jpg,turm0.jpg,turm2.jpg,,,turm2.jpg,,,1779,,
2025-10-21T09:01:01.397Z,76180382-df82-47d0-bd59-1d6193972ee5,image_pairs_bilingual_v1,trial,html-button-response,865,berg.jpg,berg1.jpg,berg3.jpg,berg1.jpg,berg3.jpg,,,berg3.jpg,,,1489,,
2025-10-21T09:01:01.397Z,76180382-df82-47d0-bd59-1d6193972ee5,image_pairs_bilingual_v1,trial,html-button-response,888,weg.jpg,weg1.jpg,weg2.jpg,weg2.jpg,weg1.jpg,,,weg1.jpg,,,2407,,
2025-10-21T09:01:01.397Z,76180382-df82-47d0-bd59-1d6193972ee5,image_pairs_bilingual_v1,trial,html-button-response,378,weg.jpg,weg2.jpg,weg3.jpg,weg2.jpg,weg3.jpg,,,weg3.jpg,,,10359,,
2025-10-21T09:01:01.397Z,76180382-df82-47d0-bd59-1d6193972ee5,image_pairs_bilingual_v1,trial,html-button-response,1696,schnee.jpg,schnee0.jpg,schnee3.jpg,schnee3.jpg,schnee0.jpg,,,schnee3.jpg,,,913,,
2025-10-21T09:01:01.397Z,76180382-df82-47d0-bd59-1d6193972ee5,image_pairs_bilingual_v1,feedback,survey-html-form,2312,,,,,,,,,,,2687,,
2025-10-21T09:01:05.904Z,c0be6156-c04a-49e8-a5a4-eff3a80a573b,image_pairs_bilingual_v1,consent,html-button-response,1621,,,,,,,,,,,2467,,
2025-10-21T09:01:05.904Z,c0be6156-c04a-49e8-a5a4-eff3a80a573b,image_pairs_bilingual_v1,intro,html-button-response,18186,,,,,,,,,,,4503,,
2025-10-21T09:01:05.904Z,c0be6156-c04a-49e8-a5a4-eff3a80a573b,image_pairs_bilingual_v1,demographics,survey-html-form,8766,,,,,,,,,,,2519,m,
2025-10-21T09:01:05.904Z,c0be6156-c04a-49e8-a5a4-eff3a80a573b,image_pairs_bilingual_v1,trial,html-button-response,13931,baum.jpg,baum2.jpg,baum3.jpg,baum3.jpg,baum2.jpg,,,baum3.jpg,,,2255,,
2025-10-21T09:01:05.904Z,c0be6156-c04a-49e8-a5a4-eff3a80a573b,image_pairs_bilingual_v1,trial,html-button-response,5158,berg.jpg,berg2.jpg,berg3.jpg,berg2.jpg,berg3.jpg,,,berg3.jpg,,,2005,,
2025-10-21T09:01:05.904Z,c0be6156-c04a-49e8-a5a4-eff3a80a573b,image_pairs_bilingual_v1,trial,html-button-response,8101,bahn.jpg,bahn0.jpg,bahn3.jpg,bahn0.jpg,bahn3.jpg,,,bahn3.jpg,,,1114,,
2025-10-21T09:01:05.904Z,c0be6156-c04a-49e8-a5a4-eff3a80a573b,image_pairs_bilingual_v1,trial,html-button-response,4187,turm.jpg,turm1.jpg,turm3.jpg,turm3.jpg,turm1.jpg,,,turm3.jpg,,,1789,,
2025-10-21T09:01:05.904Z,c0be6156-c04a-49e8-a5a4-eff3a80a573b,image_pairs_bilingual_v1,trial,html-button-response,4107,berge.jpg,berge2.jpg,berge3.jpg,berge2.jpg,berge3.jpg,,,berge3.jpg,,,1117,,
2025-10-21T09:01:05.904Z,c0be6156-c04a-49e8-a5a4-eff3a80a573b,image_pairs_bilingual_v1,trial,html-button-response,3611,bahn.jpg,bahn0.jpg,bahn1.jpg,bahn0.jpg,bahn1.jpg,,,bahn1.jpg,,,1603,,
2025-10-21T09:01:05.904Z,c0be6156-c04a-49e8-a5a4-eff3a80a573b,image_pairs_bilingual_v1,trial,html-button-response,5504,turm.jpg,turm2.jpg,turm3.jpg,turm2.jpg,turm3.jpg,,,turm3.jpg,,,762,,
2025-10-21T09:01:05.904Z,c0be6156-c04a-49e8-a5a4-eff3a80a573b,image_pairs_bilingual_v1,trial,html-button-response,5889,schnee.jpg,schnee0.jpg,schnee1.jpg,schnee1.jpg,schnee0.jpg,,,schnee1.jpg,,,3330,,
2025-10-21T09:01:05.904Z,c0be6156-c04a-49e8-a5a4-eff3a80a573b,image_pairs_bilingual_v1,trial,html-button-response,2467,schnee.jpg,schnee1.jpg,schnee2.jpg,schnee1.jpg,schnee2.jpg,,,schnee2.jpg,,,5763,,
2025-10-21T09:01:05.904Z,c0be6156-c04a-49e8-a5a4-eff3a80a573b,image_pairs_bilingual_v1,trial,html-button-response,5012,haus.jpg,haus0.jpg,haus1.jpg,haus0.jpg,haus1.jpg,,,haus0.jpg,,,2518,,
2025-10-21T09:01:05.904Z,c0be6156-c04a-49e8-a5a4-eff3a80a573b,image_pairs_bilingual_v1,trial,html-button-response,3730,berge.jpg,berge0.jpg,berge3.jpg,berge0.jpg,berge3.jpg,,,berge3.jpg,,,1849,,
2025-10-21T09:01:05.904Z,c0be6156-c04a-49e8-a5a4-eff3a80a573b,image_pairs_bilingual_v1,trial,html-button-response,7742,haus.jpg,haus1.jpg,haus3.jpg,haus1.jpg,haus3.jpg,,,haus3.jpg,,,1154,,
2025-10-21T09:01:05.904Z,c0be6156-c04a-49e8-a5a4-eff3a80a573b,image_pairs_bilingual_v1,trial,html-button-response,6779,weg.jpg,weg1.jpg,weg3.jpg,weg3.jpg,weg1.jpg,,,weg3.jpg,,,2999,,
2025-10-21T09:01:05.904Z,c0be6156-c04a-49e8-a5a4-eff3a80a573b,image_pairs_bilingual_v1,trial,html-button-response,4820,hütte.jpg,hütte2.jpg,hütte3.jpg,hütte3.jpg,hütte2.jpg,,,hütte3.jpg,,,2967,,
2025-10-21T09:01:05.904Z,c0be6156-c04a-49e8-a5a4-eff3a80a573b,image_pairs_bilingual_v1,trial,html-button-response,6809,bahn.jpg,bahn1.jpg,bahn2.jpg,bahn2.jpg,bahn1.jpg,,,bahn2.jpg,,,1046,,
2025-10-21T09:01:05.904Z,c0be6156-c04a-49e8-a5a4-eff3a80a573b,image_pairs_bilingual_v1,trial,html-button-response,2692,berge.jpg,berge0.jpg,berge1.jpg,berge0.jpg,berge1.jpg,,,berge1.jpg,,,8734,,
2025-10-21T09:01:05.904Z,c0be6156-c04a-49e8-a5a4-eff3a80a573b,image_pairs_bilingual_v1,trial,html-button-response,2090,schnee.jpg,schnee0.jpg,schnee2.jpg,schnee2.jpg,schnee0.jpg,,,schnee2.jpg,,,1714,,
2025-10-21T09:01:05.904Z,c0be6156-c04a-49e8-a5a4-eff3a80a573b,image_pairs_bilingual_v1,trial,html-button-response,6790,bäume.jpg,bäume0.jpg,bäume1.jpg,bäume0.jpg,bäume1.jpg,,,bäume1.jpg,,,1160,,
2025-10-21T09:01:05.904Z,c0be6156-c04a-49e8-a5a4-eff3a80a573b,image_pairs_bilingual_v1,trial,html-button-response,1958,turm.jpg,turm0.jpg,turm1.jpg,turm0.jpg,turm1.jpg,,,turm1.jpg,,,2352,,
2025-10-21T09:01:05.904Z,c0be6156-c04a-49e8-a5a4-eff3a80a573b,image_pairs_bilingual_v1,trial,html-button-response,7113,baum.jpg,baum1.jpg,baum2.jpg,baum2.jpg,baum1.jpg,,,baum1.jpg,,,1487,,
2025-10-21T09:01:05.904Z,c0be6156-c04a-49e8-a5a4-eff3a80a573b,image_pairs_bilingual_v1,trial,html-button-response,2188,baum.jpg,baum1.jpg,baum3.jpg,baum1.jpg,baum3.jpg,,,baum3.jpg,,,940,,
2025-10-21T09:01:05.904Z,c0be6156-c04a-49e8-a5a4-eff3a80a573b,image_pairs_bilingual_v1,trial,html-button-response,1714,berg.jpg,berg0.jpg,berg3.jpg,berg0.jpg,berg3.jpg,,,berg3.jpg,,,1333,,
2025-10-21T09:01:05.904Z,c0be6156-c04a-49e8-a5a4-eff3a80a573b,image_pairs_bilingual_v1,trial,html-button-response,3919,haus.jpg,haus0.jpg,haus2.jpg,haus0.jpg,haus2.jpg,,,haus2.jpg,,,6046,,
2025-10-21T09:01:05.904Z,c0be6156-c04a-49e8-a5a4-eff3a80a573b,image_pairs_bilingual_v1,trial,html-button-response,2967,haus.jpg,haus2.jpg,haus3.jpg,haus3.jpg,haus2.jpg,,,haus2.jpg,,,1100,,
2025-10-21T09:01:05.904Z,c0be6156-c04a-49e8-a5a4-eff3a80a573b,image_pairs_bilingual_v1,trial,html-button-response,4855,bäume.jpg,bäume1.jpg,bäume3.jpg,bäume1.jpg,bäume3.jpg,,,bäume3.jpg,,,5849,,
2025-10-21T09:01:05.904Z,c0be6156-c04a-49e8-a5a4-eff3a80a573b,image_pairs_bilingual_v1,trial,html-button-response,2953,berg.jpg,berg1.jpg,berg2.jpg,berg1.jpg,berg2.jpg,,,berg2.jpg,,,1943,,
2025-10-21T09:01:05.904Z,c0be6156-c04a-49e8-a5a4-eff3a80a573b,image_pairs_bilingual_v1,trial,html-button-response,4765,hütte.jpg,hütte1.jpg,hütte3.jpg,hütte3.jpg,hütte1.jpg,,,hütte1.jpg,,,881,,
2025-10-21T09:01:05.904Z,c0be6156-c04a-49e8-a5a4-eff3a80a573b,image_pairs_bilingual_v1,trial,html-button-response,1947,hütte.jpg,hütte0.jpg,hütte2.jpg,hütte0.jpg,hütte2.jpg,,,hütte0.jpg,,,2762,,
2025-10-21T09:01:05.904Z,c0be6156-c04a-49e8-a5a4-eff3a80a573b,image_pairs_bilingual_v1,trial,html-button-response,1771,bäume.jpg,bäume0.jpg,bäume3.jpg,bäume0.jpg,bäume3.jpg,,,bäume3.jpg,,,3110,,
2025-10-21T09:01:05.904Z,c0be6156-c04a-49e8-a5a4-eff3a80a573b,image_pairs_bilingual_v1,trial,html-button-response,1976,schnee.jpg,schnee0.jpg,schnee3.jpg,schnee0.jpg,schnee3.jpg,,,schnee3.jpg,,,1616,,
2025-10-21T09:01:05.904Z,c0be6156-c04a-49e8-a5a4-eff3a80a573b,image_pairs_bilingual_v1,trial,html-button-response,3773,baum.jpg,baum0.jpg,baum1.jpg,baum0.jpg,baum1.jpg,,,baum0.jpg,,,3541,,
2025-10-21T09:01:05.904Z,c0be6156-c04a-49e8-a5a4-eff3a80a573b,image_pairs_bilingual_v1,trial,html-button-response,2731,weg.jpg,weg0.jpg,weg1.jpg,weg1.jpg,weg0.jpg,,,weg1.jpg,,,929,,
2025-10-21T09:01:05.904Z,c0be6156-c04a-49e8-a5a4-eff3a80a573b,image_pairs_bilingual_v1,trial,html-button-response,3124,bahn.jpg,bahn0.jpg,bahn2.jpg,bahn2.jpg,bahn0.jpg,,,bahn2.jpg,,,1127,,
2025-10-21T09:01:05.904Z,c0be6156-c04a-49e8-a5a4-eff3a80a573b,image_pairs_bilingual_v1,trial,html-button-response,2246,berge.jpg,berge1.jpg,berge3.jpg,berge3.jpg,berge1.jpg,,,berge1.jpg,,,1010,,
2025-10-21T09:01:05.904Z,c0be6156-c04a-49e8-a5a4-eff3a80a573b,image_pairs_bilingual_v1,trial,html-button-response,2024,berge.jpg,berge0.jpg,berge2.jpg,berge2.jpg,berge0.jpg,,,berge0.jpg,,,865,,
2025-10-21T09:01:05.904Z,c0be6156-c04a-49e8-a5a4-eff3a80a573b,image_pairs_bilingual_v1,trial,html-button-response,1477,berge.jpg,berge1.jpg,berge2.jpg,berge2.jpg,berge1.jpg,,,berge1.jpg,,,888,,
2025-10-21T09:01:05.904Z,c0be6156-c04a-49e8-a5a4-eff3a80a573b,image_pairs_bilingual_v1,trial,html-button-response,2385,haus.jpg,haus0.jpg,haus3.jpg,haus3.jpg,haus0.jpg,,,haus3.jpg,,,378,,
2025-10-21T09:01:05.904Z,c0be6156-c04a-49e8-a5a4-eff3a80a573b,image_pairs_bilingual_v1,trial,html-button-response,2602,baum.jpg,baum0.jpg,baum3.jpg,baum3.jpg,baum0.jpg,,,baum3.jpg,,,1696,,
2025-10-21T09:01:05.904Z,c0be6156-c04a-49e8-a5a4-eff3a80a573b,image_pairs_bilingual_v1,trial,html-button-response,1817,hütte.jpg,hütte1.jpg,hütte2.jpg,hütte2.jpg,hütte1.jpg,,,hütte1.jpg,,,"2683,1",,
2025-10-21T09:01:05.904Z,c0be6156-c04a-49e8-a5a4-eff3a80a573b,image_pairs_bilingual_v1,trial,html-button-response,1870,turm.jpg,turm0.jpg,turm3.jpg,turm0.jpg,turm3.jpg,,,turm3.jpg,,,,,
2025-10-21T09:01:05.904Z,c0be6156-c04a-49e8-a5a4-eff3a80a573b,image_pairs_bilingual_v1,trial,html-button-response,2307,hütte.jpg,hütte0.jpg,hütte3.jpg,hütte0.jpg,hütte3.jpg,,,hütte3.jpg,,,,,
2025-10-21T09:01:05.904Z,c0be6156-c04a-49e8-a5a4-eff3a80a573b,image_pairs_bilingual_v1,trial,html-button-response,1830,bäume.jpg,bäume2.jpg,bäume3.jpg,bäume3.jpg,bäume2.jpg,,,bäume3.jpg,,,,,
2025-10-21T09:01:05.904Z,c0be6156-c04a-49e8-a5a4-eff3a80a573b,image_pairs_bilingual_v1,trial,html-button-response,2814,weg.jpg,weg1.jpg,weg2.jpg,weg2.jpg,weg1.jpg,,,weg1.jpg,,,,,
2025-10-21T09:01:05.904Z,c0be6156-c04a-49e8-a5a4-eff3a80a573b,image_pairs_bilingual_v1,trial,html-button-response,2050,berg.jpg,berg1.jpg,berg3.jpg,berg3.jpg,berg1.jpg,,,berg3.jpg,,,,,
2025-10-21T09:01:05.904Z,c0be6156-c04a-49e8-a5a4-eff3a80a573b,image_pairs_bilingual_v1,trial,html-button-response,2772,weg.jpg,weg0.jpg,weg2.jpg,weg2.jpg,weg0.jpg,,,weg2.jpg,,,,,
2025-10-21T09:01:05.904Z,c0be6156-c04a-49e8-a5a4-eff3a80a573b,image_pairs_bilingual_v1,trial,html-button-response,2416,haus.jpg,haus1.jpg,haus2.jpg,haus2.jpg,haus1.jpg,,,haus1.jpg,,,,,
2025-10-21T09:01:05.904Z,c0be6156-c04a-49e8-a5a4-eff3a80a573b,image_pairs_bilingual_v1,trial,html-button-response,3196,bäume.jpg,bäume1.jpg,bäume2.jpg,bäume2.jpg,bäume1.jpg,,,bäume2.jpg,,,,,
2025-10-21T09:01:05.904Z,c0be6156-c04a-49e8-a5a4-eff3a80a573b,image_pairs_bilingual_v1,trial,html-button-response,4602,turm.jpg,turm0.jpg,turm2.jpg,turm2.jpg,turm0.jpg,,,turm2.jpg,,,,,
2025-10-21T09:01:05.904Z,c0be6156-c04a-49e8-a5a4-eff3a80a573b,image_pairs_bilingual_v1,trial,html-button-response,1736,turm.jpg,turm1.jpg,turm2.jpg,turm1.jpg,turm2.jpg,,,turm2.jpg,,,,,
2025-10-21T09:01:05.904Z,c0be6156-c04a-49e8-a5a4-eff3a80a573b,image_pairs_bilingual_v1,trial,html-button-response,2419,berg.jpg,berg0.jpg,berg2.jpg,berg2.jpg,berg0.jpg,,,berg2.jpg,,,,,
2025-10-21T09:01:05.904Z,c0be6156-c04a-49e8-a5a4-eff3a80a573b,image_pairs_bilingual_v1,trial,html-button-response,1911,bäume.jpg,bäume0.jpg,bäume2.jpg,bäume0.jpg,bäume2.jpg,,,bäume2.jpg,,,,,
2025-10-21T09:01:05.904Z,c0be6156-c04a-49e8-a5a4-eff3a80a573b,image_pairs_bilingual_v1,trial,html-button-response,2586,weg.jpg,weg2.jpg,weg3.jpg,weg3.jpg,weg2.jpg,,,weg3.jpg,,,,,
2025-10-21T09:01:05.904Z,c0be6156-c04a-49e8-a5a4-eff3a80a573b,image_pairs_bilingual_v1,trial,html-button-response,3511,baum.jpg,baum0.jpg,baum2.jpg,baum2.jpg,baum0.jpg,,,baum2.jpg,,,,,
2025-10-21T09:01:05.904Z,c0be6156-c04a-49e8-a5a4-eff3a80a573b,image_pairs_bilingual_v1,trial,html-button-response,3382,bahn.jpg,bahn2.jpg,bahn3.jpg,bahn3.jpg,bahn2.jpg,,,bahn3.jpg,,,,,
2025-10-21T09:01:05.904Z,c0be6156-c04a-49e8-a5a4-eff3a80a573b,image_pairs_bilingual_v1,trial,html-button-response,3151,schnee.jpg,schnee2.jpg,schnee3.jpg,schnee2.jpg,schnee3.jpg,,,schnee3.jpg,,,,,
2025-10-21T09:01:05.904Z,c0be6156-c04a-49e8-a5a4-eff3a80a573b,image_pairs_bilingual_v1,trial,html-button-response,2056,weg.jpg,weg0.jpg,weg3.jpg,weg3.jpg,weg0.jpg,,,weg3.jpg,,,,,
2025-10-21T09:01:05.904Z,c0be6156-c04a-49e8-a5a4-eff3a80a573b,image_pairs_bilingual_v1,trial,html-button-response,1934,berg.jpg,berg0.jpg,berg1.jpg,berg0.jpg,berg1.jpg,,,berg1.jpg,,,,,
2025-10-21T09:01:05.904Z,c0be6156-c04a-49e8-a5a4-eff3a80a573b,image_pairs_bilingual_v1,trial,html-button-response,1432,bahn.jpg,bahn1.jpg,bahn3.jpg,bahn3.jpg,bahn1.jpg,,,bahn1.jpg,,,,,
2025-10-21T09:01:05.904Z,c0be6156-c04a-49e8-a5a4-eff3a80a573b,image_pairs_bilingual_v1,trial,html-button-response,2268,hütte.jpg,hütte0.jpg,hütte1.jpg,hütte1.jpg,hütte0.jpg,,,hütte1.jpg,,,,,
2025-10-21T09:01:05.904Z,c0be6156-c04a-49e8-a5a4-eff3a80a573b,image_pairs_bilingual_v1,trial,html-button-response,1447,schnee.jpg,schnee1.jpg,schnee3.jpg,schnee3.jpg,schnee1.jpg,,,schnee3.jpg,,,,,
2025-10-21T09:01:05.904Z,c0be6156-c04a-49e8-a5a4-eff3a80a573b,image_pairs_bilingual_v1,feedback,survey-html-form,8829,,,,,,,,,,,,,Done
2025-10-21T09:06:37.670Z,fff57d11-cc97-45af-8ba2-0bb55913046f,image_pairs_bilingual_v1,consent,html-button-response,5957,,,,,,,,,,,,,
2025-10-21T09:06:37.670Z,fff57d11-cc97-45af-8ba2-0bb55913046f,image_pairs_bilingual_v1,intro,html-button-response,22353,,,,,,,,,,,,,
2025-10-21T09:06:37.670Z,fff57d11-cc97-45af-8ba2-0bb55913046f,image_pairs_bilingual_v1,demographics,survey-html-form,14845,,,,,,,,,,,29,m,
2025-10-21T09:06:37.670Z,fff57d11-cc97-45af-8ba2-0bb55913046f,image_pairs_bilingual_v1,trial,html-button-response,3727,turm.jpg,turm1.jpg,turm3.jpg,turm3.jpg,turm1.jpg,,,turm3.jpg,,,,,
2025-10-21T09:06:37.670Z,fff57d11-cc97-45af-8ba2-0bb55913046f,image_pairs_bilingual_v1,trial,html-button-response,1891,weg.jpg,weg2.jpg,weg3.jpg,weg2.jpg,weg3.jpg,,,weg3.jpg,,,,,
2025-10-21T09:06:37.670Z,fff57d11-cc97-45af-8ba2-0bb55913046f,image_pairs_bilingual_v1,trial,html-button-response,2852,berge.jpg,berge2.jpg,berge3.jpg,berge3.jpg,berge2.jpg,,,berge3.jpg,,,,,
2025-10-21T09:06:37.670Z,fff57d11-cc97-45af-8ba2-0bb55913046f,image_pairs_bilingual_v1,trial,html-button-response,1297,bäume.jpg,bäume1.jpg,bäume3.jpg,bäume3.jpg,bäume1.jpg,,,bäume3.jpg,,,,,
2025-10-21T09:06:37.671Z,fff57d11-cc97-45af-8ba2-0bb55913046f,image_pairs_bilingual_v1,trial,html-button-response,1796,bäume.jpg,bäume0.jpg,bäume3.jpg,bäume3.jpg,bäume0.jpg,,,bäume3.jpg,,,,,
2025-10-21T09:06:37.671Z,fff57d11-cc97-45af-8ba2-0bb55913046f,image_pairs_bilingual_v1,trial,html-button-response,1856,berge.jpg,berge0.jpg,berge3.jpg,berge3.jpg,berge0.jpg,,,berge3.jpg,,,,,
2025-10-21T09:06:37.671Z,fff57d11-cc97-45af-8ba2-0bb55913046f,image_pairs_bilingual_v1,trial,html-button-response,1785,haus.jpg,haus1.jpg,haus2.jpg,haus1.jpg,haus2.jpg,,,haus2.jpg,,,,,
2025-10-21T09:06:37.671Z,fff57d11-cc97-45af-8ba2-0bb55913046f,image_pairs_bilingual_v1,trial,html-button-response,4050,turm.jpg,turm2.jpg,turm3.jpg,turm2.jpg,turm3.jpg,,,turm3.jpg,,,,,
2025-10-21T09:06:37.671Z,fff57d11-cc97-45af-8ba2-0bb55913046f,image_pairs_bilingual_v1,trial,html-button-response,1655,weg.jpg,weg0.jpg,weg3.jpg,weg0.jpg,weg3.jpg,,,weg3.jpg,,,,,
2025-10-21T09:06:37.671Z,fff57d11-cc97-45af-8ba2-0bb55913046f,image_pairs_bilingual_v1,trial,html-button-response,6344,bäume.jpg,bäume1.jpg,bäume2.jpg,bäume1.jpg,bäume2.jpg,,,bäume1.jpg,,,,,
2025-10-21T09:06:37.671Z,fff57d11-cc97-45af-8ba2-0bb55913046f,image_pairs_bilingual_v1,trial,html-button-response,2683,berg.jpg,berg0.jpg,berg3.jpg,berg0.jpg,berg3.jpg,,,berg3.jpg,,,,,
2025-10-21T09:06:37.671Z,fff57d11-cc97-45af-8ba2-0bb55913046f,image_pairs_bilingual_v1,trial,html-button-response,3331,bäume.jpg,bäume0.jpg,bäume2.jpg,bäume0.jpg,bäume2.jpg,,,bäume2.jpg,,,,,
2025-10-21T09:06:37.671Z,fff57d11-cc97-45af-8ba2-0bb55913046f,image_pairs_bilingual_v1,trial,html-button-response,1669,schnee.jpg,schnee1.jpg,schnee3.jpg,schnee3.jpg,schnee1.jpg,,,schnee3.jpg,,,,,
2025-10-21T09:06:37.671Z,fff57d11-cc97-45af-8ba2-0bb55913046f,image_pairs_bilingual_v1,trial,html-button-response,2776,berge.jpg,berge0.jpg,berge2.jpg,berge0.jpg,berge2.jpg,,,berge0.jpg,,,,,
2025-10-21T09:06:37.671Z,fff57d11-cc97-45af-8ba2-0bb55913046f,image_pairs_bilingual_v1,trial,html-button-response,1427,schnee.jpg,schnee0.jpg,schnee3.jpg,schnee0.jpg,schnee3.jpg,,,schnee3.jpg,,,,,
2025-10-21T09:06:37.671Z,fff57d11-cc97-45af-8ba2-0bb55913046f,image_pairs_bilingual_v1,trial,html-button-response,7408,bahn.jpg,bahn1.jpg,bahn3.jpg,bahn1.jpg,bahn3.jpg,,,bahn3.jpg,,,,,
2025-10-21T09:06:37.671Z,fff57d11-cc97-45af-8ba2-0bb55913046f,image_pairs_bilingual_v1,trial,html-button-response,4475,hütte.jpg,hütte0.jpg,hütte1.jpg,hütte0.jpg,hütte1.jpg,,,hütte1.jpg,,,,,
2025-10-21T09:06:37.671Z,fff57d11-cc97-45af-8ba2-0bb55913046f,image_pairs_bilingual_v1,trial,html-button-response,2273,haus.jpg,haus0.jpg,haus1.jpg,haus0.jpg,haus1.jpg,,,haus0.jpg,,,,,
2025-10-21T09:06:37.671Z,fff57d11-cc97-45af-8ba2-0bb55913046f,image_pairs_bilingual_v1,trial,html-button-response,6870,baum.jpg,baum0.jpg,baum2.jpg,baum0.jpg,baum2.jpg,,,baum0.jpg,,,,,
2025-10-21T09:06:37.671Z,fff57d11-cc97-45af-8ba2-0bb55913046f,image_pairs_bilingual_v1,trial,html-button-response,1965,hütte.jpg,hütte1.jpg,hütte2.jpg,hütte2.jpg,hütte1.jpg,,,hütte1.jpg,,,,,
2025-10-21T09:06:37.671Z,fff57d11-cc97-45af-8ba2-0bb55913046f,image_pairs_bilingual_v1,trial,html-button-response,5422,weg.jpg,weg1.jpg,weg2.jpg,weg2.jpg,weg1.jpg,,,weg2.jpg,,,,,
2025-10-21T09:06:37.671Z,fff57d11-cc97-45af-8ba2-0bb55913046f,image_pairs_bilingual_v1,trial,html-button-response,2111,turm.jpg,turm0.jpg,turm2.jpg,turm2.jpg,turm0.jpg,,,turm2.jpg,,,,,
2025-10-21T09:06:37.671Z,fff57d11-cc97-45af-8ba2-0bb55913046f,image_pairs_bilingual_v1,trial,html-button-response,2772,hütte.jpg,hütte1.jpg,hütte3.jpg,hütte3.jpg,hütte1.jpg,,,hütte1.jpg,,,,,
2025-10-21T09:06:37.671Z,fff57d11-cc97-45af-8ba2-0bb55913046f,image_pairs_bilingual_v1,trial,html-button-response,6408,baum.jpg,baum1.jpg,baum2.jpg,baum1.jpg,baum2.jpg,,,baum1.jpg,,,,,
2025-10-21T09:06:37.671Z,fff57d11-cc97-45af-8ba2-0bb55913046f,image_pairs_bilingual_v1,trial,html-button-response,2213,haus.jpg,haus0.jpg,haus2.jpg,haus2.jpg,haus0.jpg,,,haus0.jpg,,,,,
2025-10-21T09:06:37.671Z,fff57d11-cc97-45af-8ba2-0bb55913046f,image_pairs_bilingual_v1,trial,html-button-response,7344,haus.jpg,haus2.jpg,haus3.jpg,haus2.jpg,haus3.jpg,,,haus2.jpg,,,,,
2025-10-21T09:06:37.671Z,fff57d11-cc97-45af-8ba2-0bb55913046f,image_pairs_bilingual_v1,trial,html-button-response,1685,schnee.jpg,schnee1.jpg,schnee2.jpg,schnee2.jpg,schnee1.jpg,,,schnee2.jpg,,,,,
2025-10-21T09:06:37.671Z,fff57d11-cc97-45af-8ba2-0bb55913046f,image_pairs_bilingual_v1,trial,html-button-response,1225,turm.jpg,turm0.jpg,turm1.jpg,turm0.jpg,turm1.jpg,,,turm1.jpg,,,,,
2025-10-21T09:06:37.671Z,fff57d11-cc97-45af-8ba2-0bb55913046f,image_pairs_bilingual_v1,trial,html-button-response,4610,bäume.jpg,bäume0.jpg,bäume1.jpg,bäume0.jpg,bäume1.jpg,,,bäume1.jpg,,,,,
2025-10-21T09:06:37.671Z,fff57d11-cc97-45af-8ba2-0bb55913046f,image_pairs_bilingual_v1,trial,html-button-response,9300,bahn.jpg,bahn2.jpg,bahn3.jpg,bahn2.jpg,bahn3.jpg,,,bahn3.jpg,,,,,
2025-10-21T09:06:37.671Z,fff57d11-cc97-45af-8ba2-0bb55913046f,image_pairs_bilingual_v1,trial,html-button-response,2607,schnee.jpg,schnee0.jpg,schnee1.jpg,schnee0.jpg,schnee1.jpg,,,schnee1.jpg,,,,,
2025-10-21T09:06:37.671Z,fff57d11-cc97-45af-8ba2-0bb55913046f,image_pairs_bilingual_v1,trial,html-button-response,2987,baum.jpg,baum1.jpg,baum3.jpg,baum3.jpg,baum1.jpg,,,baum3.jpg,,,,,
2025-10-21T09:06:37.671Z,fff57d11-cc97-45af-8ba2-0bb55913046f,image_pairs_bilingual_v1,trial,html-button-response,4033,hütte.jpg,hütte0.jpg,hütte3.jpg,hütte3.jpg,hütte0.jpg,,,hütte0.jpg,,,,,
2025-10-21T09:06:37.671Z,fff57d11-cc97-45af-8ba2-0bb55913046f,image_pairs_bilingual_v1,trial,html-button-response,4201,berge.jpg,berge0.jpg,berge1.jpg,berge1.jpg,berge0.jpg,,,berge1.jpg,,,,,
2025-10-21T09:06:37.671Z,fff57d11-cc97-45af-8ba2-0bb55913046f,image_pairs_bilingual_v1,trial,html-button-response,2125,weg.jpg,weg0.jpg,weg2.jpg,weg0.jpg,weg2.jpg,,,weg2.jpg,,,,,
2025-10-21T09:06:37.671Z,fff57d11-cc97-45af-8ba2-0bb55913046f,image_pairs_bilingual_v1,trial,html-button-response,3085,berg.jpg,berg0.jpg,berg2.jpg,berg2.jpg,berg0.jpg,,,berg2.jpg,,,,,
2025-10-21T09:06:37.671Z,fff57d11-cc97-45af-8ba2-0bb55913046f,image_pairs_bilingual_v1,trial,html-button-response,2562,bäume.jpg,bäume2.jpg,bäume3.jpg,bäume2.jpg,bäume3.jpg,,,bäume3.jpg,,,,,
2025-10-21T09:06:37.671Z,fff57d11-cc97-45af-8ba2-0bb55913046f,image_pairs_bilingual_v1,trial,html-button-response,1944,baum.jpg,baum2.jpg,baum3.jpg,baum2.jpg,baum3.jpg,,,baum3.jpg,,,,,
2025-10-21T09:06:37.671Z,fff57d11-cc97-45af-8ba2-0bb55913046f,image_pairs_bilingual_v1,trial,html-button-response,5296,schnee.jpg,schnee2.jpg,schnee3.jpg,schnee3.jpg,schnee2.jpg,,,schnee2.jpg,,,,,
2025-10-21T09:06:37.671Z,fff57d11-cc97-45af-8ba2-0bb55913046f,image_pairs_bilingual_v1,trial,html-button-response,1960,turm.jpg,turm1.jpg,turm2.jpg,turm2.jpg,turm1.jpg,,,turm2.jpg,,,,,
2025-10-21T09:06:37.671Z,fff57d11-cc97-45af-8ba2-0bb55913046f,image_pairs_bilingual_v1,trial,html-button-response,4986,bahn.jpg,bahn1.jpg,bahn2.jpg,bahn1.jpg,bahn2.jpg,,,bahn2.jpg,,,,,
2025-10-21T09:06:37.671Z,fff57d11-cc97-45af-8ba2-0bb55913046f,image_pairs_bilingual_v1,trial,html-button-response,2176,hütte.jpg,hütte0.jpg,hütte2.jpg,hütte0.jpg,hütte2.jpg,,,hütte0.jpg,,,,,
2025-10-21T09:06:37.671Z,fff57d11-cc97-45af-8ba2-0bb55913046f,image_pairs_bilingual_v1,trial,html-button-response,1753,haus.jpg,haus0.jpg,haus3.jpg,haus0.jpg,haus3.jpg,,,haus0.jpg,,,,,
2025-10-21T09:06:37.671Z,fff57d11-cc97-45af-8ba2-0bb55913046f,image_pairs_bilingual_v1,trial,html-button-response,3790,bahn.jpg,bahn0.jpg,bahn3.jpg,bahn3.jpg,bahn0.jpg,,,bahn3.jpg,,,,,
2025-10-21T09:06:37.671Z,fff57d11-cc97-45af-8ba2-0bb55913046f,image_pairs_bilingual_v1,trial,html-button-response,3629,weg.jpg,weg1.jpg,weg3.jpg,weg3.jpg,weg1.jpg,,,weg3.jpg,,,,,
2025-10-21T09:06:37.671Z,fff57d11-cc97-45af-8ba2-0bb55913046f,image_pairs_bilingual_v1,trial,html-button-response,2056,haus.jpg,haus1.jpg,haus3.jpg,haus3.jpg,haus1.jpg,,,haus3.jpg,,,,,
2025-10-21T09:06:37.671Z,fff57d11-cc97-45af-8ba2-0bb55913046f,image_pairs_bilingual_v1,trial,html-button-response,1798,berg.jpg,berg1.jpg,berg2.jpg,berg2.jpg,berg1.jpg,,,berg2.jpg,,,,,
2025-10-21T09:06:37.671Z,fff57d11-cc97-45af-8ba2-0bb55913046f,image_pairs_bilingual_v1,trial,html-button-response,2628,berge.jpg,berge1.jpg,berge3.jpg,berge1.jpg,berge3.jpg,,,berge1.jpg,,,,,
2025-10-21T09:06:37.671Z,fff57d11-cc97-45af-8ba2-0bb55913046f,image_pairs_bilingual_v1,trial,html-button-response,1621,berg.jpg,berg2.jpg,berg3.jpg,berg3.jpg,berg2.jpg,,,berg3.jpg,,,,,
2025-10-21T09:06:37.671Z,fff57d11-cc97-45af-8ba2-0bb55913046f,image_pairs_bilingual_v1,trial,html-button-response,5657,berg.jpg,berg0.jpg,berg1.jpg,berg1.jpg,berg0.jpg,,,berg1.jpg,,,,,
2025-10-21T09:06:37.671Z,fff57d11-cc97-45af-8ba2-0bb55913046f,image_pairs_bilingual_v1,trial,html-button-response,1338,schnee.jpg,schnee0.jpg,schnee2.jpg,schnee0.jpg,schnee2.jpg,,,schnee2.jpg,,,,,
2025-10-21T09:06:37.671Z,fff57d11-cc97-45af-8ba2-0bb55913046f,image_pairs_bilingual_v1,trial,html-button-response,2174,bahn.jpg,bahn0.jpg,bahn2.jpg,bahn0.jpg,bahn2.jpg,,,bahn2.jpg,,,,,
2025-10-21T09:06:37.671Z,fff57d11-cc97-45af-8ba2-0bb55913046f,image_pairs_bilingual_v1,trial,html-button-response,2234,baum.jpg,baum0.jpg,baum3.jpg,baum0.jpg,baum3.jpg,,,baum3.jpg,,,,,
2025-10-21T09:06:37.671Z,fff57d11-cc97-45af-8ba2-0bb55913046f,image_pairs_bilingual_v1,trial,html-button-response,2921,hütte.jpg,hütte2.jpg,hütte3.jpg,hütte3.jpg,hütte2.jpg,,,hütte3.jpg,,,,,
2025-10-21T09:06:37.671Z,fff57d11-cc97-45af-8ba2-0bb55913046f,image_pairs_bilingual_v1,trial,html-button-response,1133,berg.jpg,berg1.jpg,berg3.jpg,berg1.jpg,berg3.jpg,,,berg3.jpg,,,,,
2025-10-21T09:06:37.671Z,fff57d11-cc97-45af-8ba2-0bb55913046f,image_pairs_bilingual_v1,trial,html-button-response,3112,baum.jpg,baum0.jpg,baum1.jpg,baum0.jpg,baum1.jpg,,,baum1.jpg,,,,,
2025-10-21T09:06:37.671Z,fff57d11-cc97-45af-8ba2-0bb55913046f,image_pairs_bilingual_v1,trial,html-button-response,2076,weg.jpg,weg0.jpg,weg1.jpg,weg0.jpg,weg1.jpg,,,weg1.jpg,,,,,
2025-10-21T09:06:37.671Z,fff57d11-cc97-45af-8ba2-0bb55913046f,image_pairs_bilingual_v1,trial,html-button-response,3251,bahn.jpg,bahn0.jpg,bahn1.jpg,bahn1.jpg,bahn0.jpg,,,bahn1.jpg,,,,,
2025-10-21T09:06:37.671Z,fff57d11-cc97-45af-8ba2-0bb55913046f,image_pairs_bilingual_v1,trial,html-button-response,1047,berge.jpg,berge1.jpg,berge2.jpg,berge1.jpg,berge2.jpg,,,berge1.jpg,,,,,
2025-10-21T09:06:37.671Z,fff57d11-cc97-45af-8ba2-0bb55913046f,image_pairs_bilingual_v1,trial,html-button-response,1170,turm.jpg,turm0.jpg,turm3.jpg,turm0.jpg,turm3.jpg,,,turm3.jpg,,,,,
2025-10-21T09:06:37.671Z,fff57d11-cc97-45af-8ba2-0bb55913046f,image_pairs_bilingual_v1,feedback,survey-html-form,1758,,,,,,,,,,,,,
2025-10-21T09:14:25.064Z,ceb14585-a89e-4540-b803-5163677134cd,image_pairs_bilingual_v1,consent,html-button-response,3649,,,,,,,,,,,,,
2025-10-21T09:14:25.064Z,ceb14585-a89e-4540-b803-5163677134cd,image_pairs_bilingual_v1,intro,html-button-response,6220,,,,,,,,,,,,,
2025-10-21T09:14:25.064Z,ceb14585-a89e-4540-b803-5163677134cd,image_pairs_bilingual_v1,demographics,survey-html-form,7941,,,,,,,,,,,18,d,
2025-10-21T09:14:25.064Z,ceb14585-a89e-4540-b803-5163677134cd,image_pairs_bilingual_v1,trial,html-button-response,11877,bäume.jpg,bäume0.jpg,bäume2.jpg,bäume0.jpg,bäume2.jpg,,,bäume2.jpg,,,,,
2025-10-21T09:14:25.064Z,ceb14585-a89e-4540-b803-5163677134cd,image_pairs_bilingual_v1,trial,html-button-response,2688,weg.jpg,weg2.jpg,weg3.jpg,weg2.jpg,weg3.jpg,,,weg3.jpg,,,,,
2025-10-21T09:14:25.064Z,ceb14585-a89e-4540-b803-5163677134cd,image_pairs_bilingual_v1,trial,html-button-response,5396,haus.jpg,haus0.jpg,haus1.jpg,haus1.jpg,haus0.jpg,,,haus1.jpg,,,,,
2025-10-21T09:14:25.064Z,ceb14585-a89e-4540-b803-5163677134cd,image_pairs_bilingual_v1,trial,html-button-response,3285,weg.jpg,weg1.jpg,weg3.jpg,weg1.jpg,weg3.jpg,,,weg3.jpg,,,,,
2025-10-21T09:14:25.064Z,ceb14585-a89e-4540-b803-5163677134cd,image_pairs_bilingual_v1,trial,html-button-response,2854,turm.jpg,turm2.jpg,turm3.jpg,turm3.jpg,turm2.jpg,,,turm3.jpg,,,,,
2025-10-21T09:14:25.064Z,ceb14585-a89e-4540-b803-5163677134cd,image_pairs_bilingual_v1,trial,html-button-response,2795,weg.jpg,weg1.jpg,weg2.jpg,weg2.jpg,weg1.jpg,,,weg1.jpg,,,,,
2025-10-21T09:14:25.064Z,ceb14585-a89e-4540-b803-5163677134cd,image_pairs_bilingual_v1,trial,html-button-response,1846,berge.jpg,berge0.jpg,berge3.jpg,berge3.jpg,berge0.jpg,,,berge3.jpg,,,,,
2025-10-21T09:14:25.064Z,ceb14585-a89e-4540-b803-5163677134cd,image_pairs_bilingual_v1,trial,html-button-response,1970,bahn.jpg,bahn0.jpg,bahn2.jpg,bahn0.jpg,bahn2.jpg,,,bahn2.jpg,,,,,
2025-10-21T09:14:25.064Z,ceb14585-a89e-4540-b803-5163677134cd,image_pairs_bilingual_v1,trial,html-button-response,2456,baum.jpg,baum0.jpg,baum2.jpg,baum0.jpg,baum2.jpg,,,baum2.jpg,,,,,
2025-10-21T09:14:25.064Z,ceb14585-a89e-4540-b803-5163677134cd,image_pairs_bilingual_v1,trial,html-button-response,2601,berg.jpg,berg0.jpg,berg2.jpg,berg0.jpg,berg2.jpg,,,berg2.jpg,,,,,
2025-10-21T09:14:25.064Z,ceb14585-a89e-4540-b803-5163677134cd,image_pairs_bilingual_v1,trial,html-button-response,1923,haus.jpg,haus0.jpg,haus2.jpg,haus0.jpg,haus2.jpg,,,haus2.jpg,,,,,
2025-10-21T09:14:25.064Z,ceb14585-a89e-4540-b803-5163677134cd,image_pairs_bilingual_v1,trial,html-button-response,3061,berge.jpg,berge0.jpg,berge2.jpg,berge2.jpg,berge0.jpg,,,berge0.jpg,,,,,
2025-10-21T09:14:25.064Z,ceb14585-a89e-4540-b803-5163677134cd,image_pairs_bilingual_v1,trial,html-button-response,1737,berge.jpg,berge1.jpg,berge2.jpg,berge1.jpg,berge2.jpg,,,berge1.jpg,,,,,
2025-10-21T09:14:25.064Z,ceb14585-a89e-4540-b803-5163677134cd,image_pairs_bilingual_v1,trial,html-button-response,8050,bahn.jpg,bahn1.jpg,bahn2.jpg,bahn1.jpg,bahn2.jpg,,,bahn1.jpg,,,,,
2025-10-21T09:14:25.064Z,ceb14585-a89e-4540-b803-5163677134cd,image_pairs_bilingual_v1,trial,html-button-response,4937,hütte.jpg,hütte0.jpg,hütte3.jpg,hütte3.jpg,hütte0.jpg,,,hütte0.jpg,,,,,
2025-10-21T09:14:25.064Z,ceb14585-a89e-4540-b803-5163677134cd,image_pairs_bilingual_v1,trial,html-button-response,2596,baum.jpg,baum1.jpg,baum3.jpg,baum3.jpg,baum1.jpg,,,baum3.jpg,,,,,
2025-10-21T09:14:25.064Z,ceb14585-a89e-4540-b803-5163677134cd,image_pairs_bilingual_v1,trial,html-button-response,7261,baum.jpg,baum1.jpg,baum2.jpg,baum2.jpg,baum1.jpg,,,baum2.jpg,,,,,
2025-10-21T09:14:25.064Z,ceb14585-a89e-4540-b803-5163677134cd,image_pairs_bilingual_v1,trial,html-button-response,1770,berg.jpg,berg1.jpg,berg2.jpg,berg1.jpg,berg2.jpg,,,berg2.jpg,,,,,
2025-10-21T09:14:25.064Z,ceb14585-a89e-4540-b803-5163677134cd,image_pairs_bilingual_v1,trial,html-button-response,1651,bahn.jpg,bahn0.jpg,bahn3.jpg,bahn3.jpg,bahn0.jpg,,,bahn3.jpg,,,,,
2025-10-21T09:14:25.064Z,ceb14585-a89e-4540-b803-5163677134cd,image_pairs_bilingual_v1,trial,html-button-response,1526,bahn.jpg,bahn0.jpg,bahn1.jpg,bahn1.jpg,bahn0.jpg,,,bahn1.jpg,,,,,
2025-10-21T09:14:25.064Z,ceb14585-a89e-4540-b803-5163677134cd,image_pairs_bilingual_v1,trial,html-button-response,1623,schnee.jpg,schnee1.jpg,schnee3.jpg,schnee1.jpg,schnee3.jpg,,,schnee3.jpg,,,,,
2025-10-21T09:14:25.064Z,ceb14585-a89e-4540-b803-5163677134cd,image_pairs_bilingual_v1,trial,html-button-response,1491,berge.jpg,berge0.jpg,berge1.jpg,berge0.jpg,berge1.jpg,,,berge1.jpg,,,,,
2025-10-21T09:14:25.064Z,ceb14585-a89e-4540-b803-5163677134cd,image_pairs_bilingual_v1,trial,html-button-response,1315,berg.jpg,berg0.jpg,berg3.jpg,berg3.jpg,berg0.jpg,,,berg3.jpg,,,,,
2025-10-21T09:14:25.064Z,ceb14585-a89e-4540-b803-5163677134cd,image_pairs_bilingual_v1,trial,html-button-response,2103,baum.jpg,baum0.jpg,baum1.jpg,baum0.jpg,baum1.jpg,,,baum1.jpg,,,,,
2025-10-21T09:14:25.064Z,ceb14585-a89e-4540-b803-5163677134cd,image_pairs_bilingual_v1,trial,html-button-response,2832,schnee.jpg,schnee0.jpg,schnee3.jpg,schnee0.jpg,schnee3.jpg,,,schnee3.jpg,,,,,
2025-10-21T09:14:25.064Z,ceb14585-a89e-4540-b803-5163677134cd,image_pairs_bilingual_v1,trial,html-button-response,1692,weg.jpg,weg0.jpg,weg3.jpg,weg0.jpg,weg3.jpg,,,weg3.jpg,,,,,
2025-10-21T09:14:25.064Z,ceb14585-a89e-4540-b803-5163677134cd,image_pairs_bilingual_v1,trial,html-button-response,2448,haus.jpg,haus1.jpg,haus3.jpg,haus3.jpg,haus1.jpg,,,haus3.jpg,,,,,
2025-10-21T09:14:25.064Z,ceb14585-a89e-4540-b803-5163677134cd,image_pairs_bilingual_v1,trial,html-button-response,1168,schnee.jpg,schnee1.jpg,schnee2.jpg,schnee2.jpg,schnee1.jpg,,,schnee2.jpg,,,,,
2025-10-21T09:14:25.064Z,ceb14585-a89e-4540-b803-5163677134cd,image_pairs_bilingual_v1,trial,html-button-response,5411,haus.jpg,haus1.jpg,haus2.jpg,haus1.jpg,haus2.jpg,,,haus2.jpg,,,,,
2025-10-21T09:14:25.064Z,ceb14585-a89e-4540-b803-5163677134cd,image_pairs_bilingual_v1,trial,html-button-response,1803,berge.jpg,berge1.jpg,berge3.jpg,berge1.jpg,berge3.jpg,,,berge1.jpg,,,,,
2025-10-21T09:14:25.064Z,ceb14585-a89e-4540-b803-5163677134cd,image_pairs_bilingual_v1,trial,html-button-response,8224,hütte.jpg,hütte1.jpg,hütte3.jpg,hütte3.jpg,hütte1.jpg,,,hütte1.jpg,,,,,
2025-10-21T09:14:25.064Z,ceb14585-a89e-4540-b803-5163677134cd,image_pairs_bilingual_v1,trial,html-button-response,1276,weg.jpg,weg0.jpg,weg1.jpg,weg0.jpg,weg1.jpg,,,weg1.jpg,,,,,
2025-10-21T09:14:25.064Z,ceb14585-a89e-4540-b803-5163677134cd,image_pairs_bilingual_v1,trial,html-button-response,4890,bahn.jpg,bahn2.jpg,bahn3.jpg,bahn3.jpg,bahn2.jpg,,,bahn3.jpg,,,,,
2025-10-21T09:14:25.064Z,ceb14585-a89e-4540-b803-5163677134cd,image_pairs_bilingual_v1,trial,html-button-response,5091,bäume.jpg,bäume0.jpg,bäume1.jpg,bäume1.jpg,bäume0.jpg,,,bäume0.jpg,,,,,
2025-10-21T09:14:25.064Z,ceb14585-a89e-4540-b803-5163677134cd,image_pairs_bilingual_v1,trial,html-button-response,1961,schnee.jpg,schnee0.jpg,schnee1.jpg,schnee1.jpg,schnee0.jpg,,,schnee1.jpg,,,,,
2025-10-21T09:14:25.064Z,ceb14585-a89e-4540-b803-5163677134cd,image_pairs_bilingual_v1,trial,html-button-response,2992,turm.jpg,turm0.jpg,turm1.jpg,turm0.jpg,turm1.jpg,,,turm1.jpg,,,,,
2025-10-21T09:14:25.064Z,ceb14585-a89e-4540-b803-5163677134cd,image_pairs_bilingual_v1,trial,html-button-response,2590,turm.jpg,turm1.jpg,turm2.jpg,turm2.jpg,turm1.jpg,,,turm2.jpg,,,,,
2025-10-21T09:14:25.064Z,ceb14585-a89e-4540-b803-5163677134cd,image_pairs_bilingual_v1,trial,html-button-response,1368,turm.jpg,turm0.jpg,turm2.jpg,turm2.jpg,turm0.jpg,,,turm2.jpg,,,,,
2025-10-21T09:14:25.064Z,ceb14585-a89e-4540-b803-5163677134cd,image_pairs_bilingual_v1,trial,html-button-response,1869,weg.jpg,weg0.jpg,weg2.jpg,weg2.jpg,weg0.jpg,,,weg2.jpg,,,,,
2025-10-21T09:14:25.064Z,ceb14585-a89e-4540-b803-5163677134cd,image_pairs_bilingual_v1,trial,html-button-response,6894,schnee.jpg,schnee2.jpg,schnee3.jpg,schnee2.jpg,schnee3.jpg,,,schnee2.jpg,,,,,
2025-10-21T09:14:25.064Z,ceb14585-a89e-4540-b803-5163677134cd,image_pairs_bilingual_v1,trial,html-button-response,5359,bäume.jpg,bäume1.jpg,bäume2.jpg,bäume1.jpg,bäume2.jpg,,,bäume2.jpg,,,,,
2025-10-21T09:14:25.064Z,ceb14585-a89e-4540-b803-5163677134cd,image_pairs_bilingual_v1,trial,html-button-response,1624,berg.jpg,berg2.jpg,berg3.jpg,berg2.jpg,berg3.jpg,,,berg3.jpg,,,,,
2025-10-21T09:14:25.064Z,ceb14585-a89e-4540-b803-5163677134cd,image_pairs_bilingual_v1,trial,html-button-response,3605,berg.jpg,berg0.jpg,berg1.jpg,berg0.jpg,berg1.jpg,,,berg1.jpg,,,,,
2025-10-21T09:14:25.064Z,ceb14585-a89e-4540-b803-5163677134cd,image_pairs_bilingual_v1,trial,html-button-response,6648,hütte.jpg,hütte2.jpg,hütte3.jpg,hütte2.jpg,hütte3.jpg,,,hütte3.jpg,,,,,
2025-10-21T09:14:25.064Z,ceb14585-a89e-4540-b803-5163677134cd,image_pairs_bilingual_v1,trial,html-button-response,1583,baum.jpg,baum2.jpg,baum3.jpg,baum3.jpg,baum2.jpg,,,baum3.jpg,,,,,
2025-10-21T09:14:25.064Z,ceb14585-a89e-4540-b803-5163677134cd,image_pairs_bilingual_v1,trial,html-button-response,5083,bahn.jpg,bahn1.jpg,bahn3.jpg,bahn3.jpg,bahn1.jpg,,,bahn3.jpg,,,,,
2025-10-21T09:14:25.064Z,ceb14585-a89e-4540-b803-5163677134cd,image_pairs_bilingual_v1,trial,html-button-response,1895,hütte.jpg,hütte0.jpg,hütte2.jpg,hütte2.jpg,hütte0.jpg,,,hütte0.jpg,,,,,
2025-10-21T09:14:25.064Z,ceb14585-a89e-4540-b803-5163677134cd,image_pairs_bilingual_v1,trial,html-button-response,1483,berge.jpg,berge2.jpg,berge3.jpg,berge2.jpg,berge3.jpg,,,berge3.jpg,,,,,
2025-10-21T09:14:25.064Z,ceb14585-a89e-4540-b803-5163677134cd,image_pairs_bilingual_v1,trial,html-button-response,2237,bäume.jpg,bäume2.jpg,bäume3.jpg,bäume2.jpg,bäume3.jpg,,,bäume3.jpg,,,,,
2025-10-21T09:14:25.064Z,ceb14585-a89e-4540-b803-5163677134cd,image_pairs_bilingual_v1,trial,html-button-response,1521,baum.jpg,baum0.jpg,baum3.jpg,baum3.jpg,baum0.jpg,,,baum3.jpg,,,,,
2025-10-21T09:14:25.064Z,ceb14585-a89e-4540-b803-5163677134cd,image_pairs_bilingual_v1,trial,html-button-response,7854,bäume.jpg,bäume1.jpg,bäume3.jpg,bäume1.jpg,bäume3.jpg,,,bäume3.jpg,,,,,
2025-10-21T09:14:25.064Z,ceb14585-a89e-4540-b803-5163677134cd,image_pairs_bilingual_v1,trial,html-button-response,1325,turm.jpg,turm0.jpg,turm3.jpg,turm0.jpg,turm3.jpg,,,turm3.jpg,,,,,
2025-10-21T09:14:25.064Z,ceb14585-a89e-4540-b803-5163677134cd,image_pairs_bilingual_v1,trial,html-button-response,2254,hütte.jpg,hütte1.jpg,hütte2.jpg,hütte2.jpg,hütte1.jpg,,,hütte1.jpg,,,,,
2025-10-21T09:14:25.064Z,ceb14585-a89e-4540-b803-5163677134cd,image_pairs_bilingual_v1,trial,html-button-response,1059,turm.jpg,turm1.jpg,turm3.jpg,turm3.jpg,turm1.jpg,,,turm3.jpg,,,,,
2025-10-21T09:14:25.064Z,ceb14585-a89e-4540-b803-5163677134cd,image_pairs_bilingual_v1,trial,html-button-response,1466,bäume.jpg,bäume0.jpg,bäume3.jpg,bäume0.jpg,bäume3.jpg,,,bäume3.jpg,,,,,
2025-10-21T09:14:25.064Z,ceb14585-a89e-4540-b803-5163677134cd,image_pairs_bilingual_v1,trial,html-button-response,3038,haus.jpg,haus2.jpg,haus3.jpg,haus3.jpg,haus2.jpg,,,haus3.jpg,,,,,
2025-10-21T09:14:25.064Z,ceb14585-a89e-4540-b803-5163677134cd,image_pairs_bilingual_v1,trial,html-button-response,2380,haus.jpg,haus0.jpg,haus3.jpg,haus3.jpg,haus0.jpg,,,haus3.jpg,,,,,
2025-10-21T09:14:25.064Z,ceb14585-a89e-4540-b803-5163677134cd,image_pairs_bilingual_v1,trial,html-button-response,4108,hütte.jpg,hütte0.jpg,hütte1.jpg,hütte0.jpg,hütte1.jpg,,,hütte0.jpg,,,,,
2025-10-21T09:14:25.064Z,ceb14585-a89e-4540-b803-5163677134cd,image_pairs_bilingual_v1,trial,html-button-response,1451,schnee.jpg,schnee0.jpg,schnee2.jpg,schnee0.jpg,schnee2.jpg,,,schnee2.jpg,,,,,
2025-10-21T09:14:25.064Z,ceb14585-a89e-4540-b803-5163677134cd,image_pairs_bilingual_v1,trial,html-button-response,1376,berg.jpg,berg1.jpg,berg3.jpg,berg1.jpg,berg3.jpg,,,berg3.jpg,,,,,
2025-10-21T09:14:25.064Z,ceb14585-a89e-4540-b803-5163677134cd,image_pairs_bilingual_v1,feedback,survey-html-form,1963,,,,,,,,,,,,,
2025-10-21T09:44:02.090Z,6a9fa960-c213-4f7e-8ffb-ed98670b2c4a,image_pairs_bilingual_v1,consent,html-button-response,1753,,,,,,,,,,,,,
2025-10-21T09:44:02.090Z,6a9fa960-c213-4f7e-8ffb-ed98670b2c4a,image_pairs_bilingual_v1,intro,html-button-response,17610,,,,,,,,,,,,,
2025-10-21T09:44:02.090Z,6a9fa960-c213-4f7e-8ffb-ed98670b2c4a,image_pairs_bilingual_v1,demographics,survey-html-form,8391,,,,,,,,,,,22,w,
2025-10-21T09:44:02.090Z,6a9fa960-c213-4f7e-8ffb-ed98670b2c4a,image_pairs_bilingual_v1,trial,html-button-response,3394,weg.jpg,weg1.jpg,weg2.jpg,weg2.jpg,weg1.jpg,,,weg1.jpg,,,,,
2025-10-21T09:44:02.090Z,6a9fa960-c213-4f7e-8ffb-ed98670b2c4a,image_pairs_bilingual_v1,trial,html-button-response,2481,bahn.jpg,bahn0.jpg,bahn2.jpg,bahn2.jpg,bahn0.jpg,,,bahn2.jpg,,,,,
2025-10-21T09:44:02.090Z,6a9fa960-c213-4f7e-8ffb-ed98670b2c4a,image_pairs_bilingual_v1,trial,html-button-response,2713,bäume.jpg,bäume0.jpg,bäume1.jpg,bäume1.jpg,bäume0.jpg,,,bäume1.jpg,,,,,
2025-10-21T09:44:02.090Z,6a9fa960-c213-4f7e-8ffb-ed98670b2c4a,image_pairs_bilingual_v1,trial,html-button-response,1779,haus.jpg,haus2.jpg,haus3.jpg,haus3.jpg,haus2.jpg,,,haus3.jpg,,,,,
2025-10-21T09:44:02.090Z,6a9fa960-c213-4f7e-8ffb-ed98670b2c4a,image_pairs_bilingual_v1,trial,html-button-response,1699,schnee.jpg,schnee0.jpg,schnee3.jpg,schnee3.jpg,schnee0.jpg,,,schnee3.jpg,,,,,
2025-10-21T09:44:02.090Z,6a9fa960-c213-4f7e-8ffb-ed98670b2c4a,image_pairs_bilingual_v1,trial,html-button-response,4567,schnee.jpg,schnee0.jpg,schnee1.jpg,schnee1.jpg,schnee0.jpg,,,schnee0.jpg,,,,,
2025-10-21T09:44:02.090Z,6a9fa960-c213-4f7e-8ffb-ed98670b2c4a,image_pairs_bilingual_v1,trial,html-button-response,1586,bäume.jpg,bäume1.jpg,bäume3.jpg,bäume1.jpg,bäume3.jpg,,,bäume3.jpg,,,,,
2025-10-21T09:44:02.090Z,6a9fa960-c213-4f7e-8ffb-ed98670b2c4a,image_pairs_bilingual_v1,trial,html-button-response,2651,turm.jpg,turm1.jpg,turm3.jpg,turm3.jpg,turm1.jpg,,,turm3.jpg,,,,,
2025-10-21T09:44:02.090Z,6a9fa960-c213-4f7e-8ffb-ed98670b2c4a,image_pairs_bilingual_v1,trial,html-button-response,2809,baum.jpg,baum2.jpg,baum3.jpg,baum2.jpg,baum3.jpg,,,baum2.jpg,,,,,
2025-10-21T09:44:02.090Z,6a9fa960-c213-4f7e-8ffb-ed98670b2c4a,image_pairs_bilingual_v1,trial,html-button-response,1630,hütte.jpg,hütte2.jpg,hütte3.jpg,hütte2.jpg,hütte3.jpg,,,hütte3.jpg,,,,,
2025-10-21T09:44:02.090Z,6a9fa960-c213-4f7e-8ffb-ed98670b2c4a,image_pairs_bilingual_v1,trial,html-button-response,1972,berg.jpg,berg0.jpg,berg2.jpg,berg0.jpg,berg2.jpg,,,berg2.jpg,,,,,
2025-10-21T09:44:02.090Z,6a9fa960-c213-4f7e-8ffb-ed98670b2c4a,image_pairs_bilingual_v1,trial,html-button-response,1887,berge.jpg,berge2.jpg,berge3.jpg,berge2.jpg,berge3.jpg,,,berge3.jpg,,,,,
2025-10-21T09:44:02.090Z,6a9fa960-c213-4f7e-8ffb-ed98670b2c4a,image_pairs_bilingual_v1,trial,html-button-response,1515,berg.jpg,berg0.jpg,berg1.jpg,berg1.jpg,berg0.jpg,,,berg1.jpg,,,,,
2025-10-21T09:44:02.090Z,6a9fa960-c213-4f7e-8ffb-ed98670b2c4a,image_pairs_bilingual_v1,trial,html-button-response,5074,bäume.jpg,bäume1.jpg,bäume2.jpg,bäume1.jpg,bäume2.jpg,,,bäume2.jpg,,,,,
2025-10-21T09:44:02.090Z,6a9fa960-c213-4f7e-8ffb-ed98670b2c4a,image_pairs_bilingual_v1,trial,html-button-response,3971,baum.jpg,baum1.jpg,baum3.jpg,baum1.jpg,baum3.jpg,,,baum3.jpg,,,,,
2025-10-21T09:44:02.090Z,6a9fa960-c213-4f7e-8ffb-ed98670b2c4a,image_pairs_bilingual_v1,trial,html-button-response,1615,schnee.jpg,schnee0.jpg,schnee2.jpg,schnee2.jpg,schnee0.jpg,,,schnee2.jpg,,,,,
2025-10-21T09:44:02.090Z,6a9fa960-c213-4f7e-8ffb-ed98670b2c4a,image_pairs_bilingual_v1,trial,html-button-response,3398,bahn.jpg,bahn1.jpg,bahn2.jpg,bahn1.jpg,bahn2.jpg,,,bahn1.jpg,,,,,
2025-10-21T09:44:02.090Z,6a9fa960-c213-4f7e-8ffb-ed98670b2c4a,image_pairs_bilingual_v1,trial,html-button-response,1491,bahn.jpg,bahn1.jpg,bahn3.jpg,bahn3.jpg,bahn1.jpg,,,bahn1.jpg,,,,,
2025-10-21T09:44:02.090Z,6a9fa960-c213-4f7e-8ffb-ed98670b2c4a,image_pairs_bilingual_v1,trial,html-button-response,2575,baum.jpg,baum0.jpg,baum3.jpg,baum0.jpg,baum3.jpg,,,baum0.jpg,,,,,
2025-10-21T09:44:02.090Z,6a9fa960-c213-4f7e-8ffb-ed98670b2c4a,image_pairs_bilingual_v1,trial,html-button-response,2195,weg.jpg,weg0.jpg,weg3.jpg,weg3.jpg,weg0.jpg,,,weg3.jpg,,,,,
2025-10-21T09:44:02.090Z,6a9fa960-c213-4f7e-8ffb-ed98670b2c4a,image_pairs_bilingual_v1,trial,html-button-response,4613,bäume.jpg,bäume0.jpg,bäume2.jpg,bäume2.jpg,bäume0.jpg,,,bäume0.jpg,,,,,
2025-10-21T09:44:02.090Z,6a9fa960-c213-4f7e-8ffb-ed98670b2c4a,image_pairs_bilingual_v1,trial,html-button-response,1701,haus.jpg,haus0.jpg,haus2.jpg,haus0.jpg,haus2.jpg,,,haus0.jpg,,,,,
2025-10-21T09:44:02.090Z,6a9fa960-c213-4f7e-8ffb-ed98670b2c4a,image_pairs_bilingual_v1,trial,html-button-response,2987,baum.jpg,baum0.jpg,baum2.jpg,baum2.jpg,baum0.jpg,,,baum0.jpg,,,,,
2025-10-21T09:44:02.090Z,6a9fa960-c213-4f7e-8ffb-ed98670b2c4a,image_pairs_bilingual_v1,trial,html-button-response,2107,haus.jpg,haus0.jpg,haus3.jpg,haus3.jpg,haus0.jpg,,,haus3.jpg,,,,,
2025-10-21T09:44:02.090Z,6a9fa960-c213-4f7e-8ffb-ed98670b2c4a,image_pairs_bilingual_v1,trial,html-button-response,5186,weg.jpg,weg1.jpg,weg3.jpg,weg1.jpg,weg3.jpg,,,weg1.jpg,,,,,
2025-10-21T09:44:02.090Z,6a9fa960-c213-4f7e-8ffb-ed98670b2c4a,image_pairs_bilingual_v1,trial,html-button-response,3816,bahn.jpg,bahn0.jpg,bahn3.jpg,bahn3.jpg,bahn0.jpg,,,bahn0.jpg,,,,,
2025-10-21T09:44:02.090Z,6a9fa960-c213-4f7e-8ffb-ed98670b2c4a,image_pairs_bilingual_v1,trial,html-button-response,1594,baum.jpg,baum1.jpg,baum2.jpg,baum1.jpg,baum2.jpg,,,baum1.jpg,,,,,
2025-10-21T09:44:02.090Z,6a9fa960-c213-4f7e-8ffb-ed98670b2c4a,image_pairs_bilingual_v1,trial,html-button-response,2423,schnee.jpg,schnee1.jpg,schnee3.jpg,schnee3.jpg,schnee1.jpg,,,schnee3.jpg,,,,,
2025-10-21T09:44:02.090Z,6a9fa960-c213-4f7e-8ffb-ed98670b2c4a,image_pairs_bilingual_v1,trial,html-button-response,1614,berg.jpg,berg0.jpg,berg3.jpg,berg3.jpg,berg0.jpg,,,berg3.jpg,,,,,
2025-10-21T09:44:02.090Z,6a9fa960-c213-4f7e-8ffb-ed98670b2c4a,image_pairs_bilingual_v1,trial,html-button-response,1518,berge.jpg,berge0.jpg,berge1.jpg,berge0.jpg,berge1.jpg,,,berge1.jpg,,,,,
2025-10-21T09:44:02.090Z,6a9fa960-c213-4f7e-8ffb-ed98670b2c4a,image_pairs_bilingual_v1,trial,html-button-response,2600,turm.jpg,turm0.jpg,turm2.jpg,turm0.jpg,turm2.jpg,,,turm2.jpg,,,,,
2025-10-21T09:44:02.090Z,6a9fa960-c213-4f7e-8ffb-ed98670b2c4a,image_pairs_bilingual_v1,trial,html-button-response,1977,bäume.jpg,bäume2.jpg,bäume3.jpg,bäume2.jpg,bäume3.jpg,,,bäume3.jpg,,,,,
2025-10-21T09:44:02.090Z,6a9fa960-c213-4f7e-8ffb-ed98670b2c4a,image_pairs_bilingual_v1,trial,html-button-response,1532,weg.jpg,weg0.jpg,weg1.jpg,weg0.jpg,weg1.jpg,,,weg1.jpg,,,,,
2025-10-21T09:44:02.090Z,6a9fa960-c213-4f7e-8ffb-ed98670b2c4a,image_pairs_bilingual_v1,trial,html-button-response,1881,haus.jpg,haus1.jpg,haus2.jpg,haus2.jpg,haus1.jpg,,,haus1.jpg,,,,,
2025-10-21T09:44:02.090Z,6a9fa960-c213-4f7e-8ffb-ed98670b2c4a,image_pairs_bilingual_v1,trial,html-button-response,7299,turm.jpg,turm2.jpg,turm3.jpg,turm3.jpg,turm2.jpg,,,turm3.jpg,,,,,
2025-10-21T09:44:02.090Z,6a9fa960-c213-4f7e-8ffb-ed98670b2c4a,image_pairs_bilingual_v1,trial,html-button-response,1930,hütte.jpg,hütte1.jpg,hütte3.jpg,hütte3.jpg,hütte1.jpg,,,hütte3.jpg,,,,,
2025-10-21T09:44:02.090Z,6a9fa960-c213-4f7e-8ffb-ed98670b2c4a,image_pairs_bilingual_v1,trial,html-button-response,2512,berge.jpg,berge0.jpg,berge2.jpg,berge0.jpg,berge2.jpg,,,berge0.jpg,,,,,
2025-10-21T09:44:02.090Z,6a9fa960-c213-4f7e-8ffb-ed98670b2c4a,image_pairs_bilingual_v1,trial,html-button-response,1221,berge.jpg,berge0.jpg,berge3.jpg,berge0.jpg,berge3.jpg,,,berge3.jpg,,,,,
2025-10-21T09:44:02.090Z,6a9fa960-c213-4f7e-8ffb-ed98670b2c4a,image_pairs_bilingual_v1,trial,html-button-response,2162,hütte.jpg,hütte0.jpg,hütte2.jpg,hütte2.jpg,hütte0.jpg,,,hütte0.jpg,,,,,
2025-10-21T09:44:02.090Z,6a9fa960-c213-4f7e-8ffb-ed98670b2c4a,image_pairs_bilingual_v1,trial,html-button-response,5583,bahn.jpg,bahn2.jpg,bahn3.jpg,bahn3.jpg,bahn2.jpg,,,bahn3.jpg,,,,,
2025-10-21T09:44:02.090Z,6a9fa960-c213-4f7e-8ffb-ed98670b2c4a,image_pairs_bilingual_v1,trial,html-button-response,2032,haus.jpg,haus1.jpg,haus3.jpg,haus3.jpg,haus1.jpg,,,haus3.jpg,,,,,
2025-10-21T09:44:02.090Z,6a9fa960-c213-4f7e-8ffb-ed98670b2c4a,image_pairs_bilingual_v1,trial,html-button-response,1440,berge.jpg,berge1.jpg,berge2.jpg,berge1.jpg,berge2.jpg,,,berge1.jpg,,,,,
2025-10-21T09:44:02.090Z,6a9fa960-c213-4f7e-8ffb-ed98670b2c4a,image_pairs_bilingual_v1,trial,html-button-response,1376,berg.jpg,berg1.jpg,berg3.jpg,berg1.jpg,berg3.jpg,,,berg3.jpg,,,,,
2025-10-21T09:44:02.090Z,6a9fa960-c213-4f7e-8ffb-ed98670b2c4a,image_pairs_bilingual_v1,trial,html-button-response,1308,schnee.jpg,schnee1.jpg,schnee2.jpg,schnee2.jpg,schnee1.jpg,,,schnee2.jpg,,,,,
2025-10-21T09:44:02.090Z,6a9fa960-c213-4f7e-8ffb-ed98670b2c4a,image_pairs_bilingual_v1,trial,html-button-response,1650,hütte.jpg,hütte0.jpg,hütte3.jpg,hütte3.jpg,hütte0.jpg,,,hütte0.jpg,,,,,
2025-10-21T09:44:02.090Z,6a9fa960-c213-4f7e-8ffb-ed98670b2c4a,image_pairs_bilingual_v1,trial,html-button-response,1974,berge.jpg,berge1.jpg,berge3.jpg,berge1.jpg,berge3.jpg,,,berge1.jpg,,,,,
2025-10-21T09:44:02.090Z,6a9fa960-c213-4f7e-8ffb-ed98670b2c4a,image_pairs_bilingual_v1,trial,html-button-response,2117,schnee.jpg,schnee2.jpg,schnee3.jpg,schnee3.jpg,schnee2.jpg,,,schnee2.jpg,,,,,
2025-10-21T09:44:02.090Z,6a9fa960-c213-4f7e-8ffb-ed98670b2c4a,image_pairs_bilingual_v1,trial,html-button-response,2208,weg.jpg,weg0.jpg,weg2.jpg,weg0.jpg,weg2.jpg,,,weg0.jpg,,,,,
2025-10-21T09:44:02.090Z,6a9fa960-c213-4f7e-8ffb-ed98670b2c4a,image_pairs_bilingual_v1,trial,html-button-response,1822,turm.jpg,turm0.jpg,turm3.jpg,turm3.jpg,turm0.jpg,,,turm3.jpg,,,,,
2025-10-21T09:44:02.090Z,6a9fa960-c213-4f7e-8ffb-ed98670b2c4a,image_pairs_bilingual_v1,trial,html-button-response,1416,hütte.jpg,hütte0.jpg,hütte1.jpg,hütte0.jpg,hütte1.jpg,,,hütte0.jpg,,,,,
2025-10-21T09:44:02.090Z,6a9fa960-c213-4f7e-8ffb-ed98670b2c4a,image_pairs_bilingual_v1,trial,html-button-response,1622,bäume.jpg,bäume0.jpg,bäume3.jpg,bäume0.jpg,bäume3.jpg,,,bäume3.jpg,,,,,
2025-10-21T09:44:02.090Z,6a9fa960-c213-4f7e-8ffb-ed98670b2c4a,image_pairs_bilingual_v1,trial,html-button-response,3918,bahn.jpg,bahn0.jpg,bahn1.jpg,bahn0.jpg,bahn1.jpg,,,bahn1.jpg,,,,,
2025-10-21T09:44:02.090Z,6a9fa960-c213-4f7e-8ffb-ed98670b2c4a,image_pairs_bilingual_v1,trial,html-button-response,3411,haus.jpg,haus0.jpg,haus1.jpg,haus0.jpg,haus1.jpg,,,haus1.jpg,,,,,
2025-10-21T09:44:02.090Z,6a9fa960-c213-4f7e-8ffb-ed98670b2c4a,image_pairs_bilingual_v1,trial,html-button-response,2601,turm.jpg,turm0.jpg,turm1.jpg,turm1.jpg,turm0.jpg,,,turm1.jpg,,,,,
2025-10-21T09:44:02.090Z,6a9fa960-c213-4f7e-8ffb-ed98670b2c4a,image_pairs_bilingual_v1,trial,html-button-response,1673,baum.jpg,baum0.jpg,baum1.jpg,baum1.jpg,baum0.jpg,,,baum0.jpg,,,,,
2025-10-21T09:44:02.090Z,6a9fa960-c213-4f7e-8ffb-ed98670b2c4a,image_pairs_bilingual_v1,trial,html-button-response,2149,berg.jpg,berg1.jpg,berg2.jpg,berg1.jpg,berg2.jpg,,,berg1.jpg,,,,,
2025-10-21T09:44:02.090Z,6a9fa960-c213-4f7e-8ffb-ed98670b2c4a,image_pairs_bilingual_v1,trial,html-button-response,4323,hütte.jpg,hütte1.jpg,hütte2.jpg,hütte1.jpg,hütte2.jpg,,,hütte2.jpg,,,,,
2025-10-21T09:44:02.090Z,6a9fa960-c213-4f7e-8ffb-ed98670b2c4a,image_pairs_bilingual_v1,trial,html-button-response,2117,turm.jpg,turm1.jpg,turm2.jpg,turm2.jpg,turm1.jpg,,,turm2.jpg,,,,,
2025-10-21T09:44:02.090Z,6a9fa960-c213-4f7e-8ffb-ed98670b2c4a,image_pairs_bilingual_v1,trial,html-button-response,1777,weg.jpg,weg2.jpg,weg3.jpg,weg3.jpg,weg2.jpg,,,weg3.jpg,,,,,
2025-10-21T09:44:02.090Z,6a9fa960-c213-4f7e-8ffb-ed98670b2c4a,image_pairs_bilingual_v1,trial,html-button-response,1414,berg.jpg,berg2.jpg,berg3.jpg,berg2.jpg,berg3.jpg,,,berg3.jpg,,,,,
2025-10-21T09:44:02.090Z,6a9fa960-c213-4f7e-8ffb-ed98670b2c4a,image_pairs_bilingual_v1,feedback,survey-html-form,1666,,,,,,,,,,,,,
2025-10-21T10:09:37.412Z,257c33f5-0454-4dda-8d24-1492ff340bf7,image_pairs_bilingual_v1,consent,html-button-response,8181,,,,,,,,,,,,,
2025-10-21T10:09:37.412Z,257c33f5-0454-4dda-8d24-1492ff340bf7,image_pairs_bilingual_v1,intro,html-button-response,1524,,,,,,,,,,,,,
2025-10-21T10:09:37.412Z,257c33f5-0454-4dda-8d24-1492ff340bf7,image_pairs_bilingual_v1,demographics,survey-html-form,12380,,,,,,,,,,,22,m,
2025-10-21T10:09:37.412Z,257c33f5-0454-4dda-8d24-1492ff340bf7,image_pairs_bilingual_v1,trial,html-button-response,4410,berge.jpg,berge2.jpg,berge3.jpg,berge2.jpg,berge3.jpg,,,berge3.jpg,,,,,
2025-10-21T10:09:37.412Z,257c33f5-0454-4dda-8d24-1492ff340bf7,image_pairs_bilingual_v1,trial,html-button-response,1971,hütte.jpg,hütte2.jpg,hütte3.jpg,hütte2.jpg,hütte3.jpg,,,hütte3.jpg,,,,,
2025-10-21T10:09:37.412Z,257c33f5-0454-4dda-8d24-1492ff340bf7,image_pairs_bilingual_v1,trial,html-button-response,3162,schnee.jpg,schnee0.jpg,schnee1.jpg,schnee0.jpg,schnee1.jpg,,,schnee1.jpg,,,,,
2025-10-21T10:09:37.412Z,257c33f5-0454-4dda-8d24-1492ff340bf7,image_pairs_bilingual_v1,trial,html-button-response,2984,schnee.jpg,schnee2.jpg,schnee3.jpg,schnee3.jpg,schnee2.jpg,,,schnee3.jpg,,,,,
2025-10-21T10:09:37.412Z,257c33f5-0454-4dda-8d24-1492ff340bf7,image_pairs_bilingual_v1,trial,html-button-response,3031,turm.jpg,turm1.jpg,turm3.jpg,turm1.jpg,turm3.jpg,,,turm3.jpg,,,,,
2025-10-21T10:09:37.412Z,257c33f5-0454-4dda-8d24-1492ff340bf7,image_pairs_bilingual_v1,trial,html-button-response,1355,berg.jpg,berg0.jpg,berg3.jpg,berg3.jpg,berg0.jpg,,,berg3.jpg,,,,,
2025-10-21T10:09:37.412Z,257c33f5-0454-4dda-8d24-1492ff340bf7,image_pairs_bilingual_v1,trial,html-button-response,2963,bahn.jpg,bahn1.jpg,bahn3.jpg,bahn3.jpg,bahn1.jpg,,,bahn1.jpg,,,,,
2025-10-21T10:09:37.412Z,257c33f5-0454-4dda-8d24-1492ff340bf7,image_pairs_bilingual_v1,trial,html-button-response,1431,schnee.jpg,schnee0.jpg,schnee2.jpg,schnee0.jpg,schnee2.jpg,,,schnee2.jpg,,,,,
2025-10-21T10:09:37.412Z,257c33f5-0454-4dda-8d24-1492ff340bf7,image_pairs_bilingual_v1,trial,html-button-response,1413,berg.jpg,berg1.jpg,berg3.jpg,berg1.jpg,berg3.jpg,,,berg3.jpg,,,,,
2025-10-21T10:09:37.412Z,257c33f5-0454-4dda-8d24-1492ff340bf7,image_pairs_bilingual_v1,trial,html-button-response,3024,berg.jpg,berg0.jpg,berg1.jpg,berg0.jpg,berg1.jpg,,,berg1.jpg,,,,,
2025-10-21T10:09:37.412Z,257c33f5-0454-4dda-8d24-1492ff340bf7,image_pairs_bilingual_v1,trial,html-button-response,2397,hütte.jpg,hütte1.jpg,hütte2.jpg,hütte2.jpg,hütte1.jpg,,,hütte2.jpg,,,,,
2025-10-21T10:09:37.412Z,257c33f5-0454-4dda-8d24-1492ff340bf7,image_pairs_bilingual_v1,trial,html-button-response,2242,weg.jpg,weg1.jpg,weg3.jpg,weg3.jpg,weg1.jpg,,,weg3.jpg,,,,,
2025-10-21T10:09:37.412Z,257c33f5-0454-4dda-8d24-1492ff340bf7,image_pairs_bilingual_v1,trial,html-button-response,1858,bahn.jpg,bahn0.jpg,bahn2.jpg,bahn2.jpg,bahn0.jpg,,,bahn2.jpg,,,,,
2025-10-21T10:09:37.412Z,257c33f5-0454-4dda-8d24-1492ff340bf7,image_pairs_bilingual_v1,trial,html-button-response,1837,schnee.jpg,schnee1.jpg,schnee2.jpg,schnee1.jpg,schnee2.jpg,,,schnee2.jpg,,,,,
2025-10-21T10:09:37.412Z,257c33f5-0454-4dda-8d24-1492ff340bf7,image_pairs_bilingual_v1,trial,html-button-response,1326,berg.jpg,berg0.jpg,berg2.jpg,berg0.jpg,berg2.jpg,,,berg2.jpg,,,,,
2025-10-21T10:09:37.412Z,257c33f5-0454-4dda-8d24-1492ff340bf7,image_pairs_bilingual_v1,trial,html-button-response,1359,baum.jpg,baum0.jpg,baum2.jpg,baum0.jpg,baum2.jpg,,,baum0.jpg,,,,,
2025-10-21T10:09:37.412Z,257c33f5-0454-4dda-8d24-1492ff340bf7,image_pairs_bilingual_v1,trial,html-button-response,1559,berge.jpg,berge1.jpg,berge3.jpg,berge1.jpg,berge3.jpg,,,berge1.jpg,,,,,
2025-10-21T10:09:37.412Z,257c33f5-0454-4dda-8d24-1492ff340bf7,image_pairs_bilingual_v1,trial,html-button-response,2014,weg.jpg,weg2.jpg,weg3.jpg,weg3.jpg,weg2.jpg,,,weg3.jpg,,,,,
2025-10-21T10:09:37.412Z,257c33f5-0454-4dda-8d24-1492ff340bf7,image_pairs_bilingual_v1,trial,html-button-response,978,berge.jpg,berge1.jpg,berge2.jpg,berge1.jpg,berge2.jpg,,,berge1.jpg,,,,,
2025-10-21T10:09:37.412Z,257c33f5-0454-4dda-8d24-1492ff340bf7,image_pairs_bilingual_v1,trial,html-button-response,1876,baum.jpg,baum0.jpg,baum3.jpg,baum0.jpg,baum3.jpg,,,baum0.jpg,,,,,
2025-10-21T10:09:37.412Z,257c33f5-0454-4dda-8d24-1492ff340bf7,image_pairs_bilingual_v1,trial,html-button-response,1352,hütte.jpg,hütte0.jpg,hütte1.jpg,hütte1.jpg,hütte0.jpg,,,hütte0.jpg,,,,,
2025-10-21T10:09:37.412Z,257c33f5-0454-4dda-8d24-1492ff340bf7,image_pairs_bilingual_v1,trial,html-button-response,1308,bäume.jpg,bäume1.jpg,bäume3.jpg,bäume1.jpg,bäume3.jpg,,,bäume3.jpg,,,,,
2025-10-21T10:09:37.412Z,257c33f5-0454-4dda-8d24-1492ff340bf7,image_pairs_bilingual_v1,trial,html-button-response,1589,bahn.jpg,bahn1.jpg,bahn2.jpg,bahn1.jpg,bahn2.jpg,,,bahn1.jpg,,,,,
2025-10-21T10:09:37.412Z,257c33f5-0454-4dda-8d24-1492ff340bf7,image_pairs_bilingual_v1,trial,html-button-response,2821,haus.jpg,haus1.jpg,haus3.jpg,haus3.jpg,haus1.jpg,,,haus1.jpg,,,,,
2025-10-21T10:09:37.412Z,257c33f5-0454-4dda-8d24-1492ff340bf7,image_pairs_bilingual_v1,trial,html-button-response,1410,hütte.jpg,hütte0.jpg,hütte2.jpg,hütte2.jpg,hütte0.jpg,,,hütte0.jpg,,,,,
2025-10-21T10:09:37.412Z,257c33f5-0454-4dda-8d24-1492ff340bf7,image_pairs_bilingual_v1,trial,html-button-response,1400,turm.jpg,turm2.jpg,turm3.jpg,turm3.jpg,turm2.jpg,,,turm3.jpg,,,,,
2025-10-21T10:09:37.412Z,257c33f5-0454-4dda-8d24-1492ff340bf7,image_pairs_bilingual_v1,trial,html-button-response,1669,bahn.jpg,bahn0.jpg,bahn3.jpg,bahn3.jpg,bahn0.jpg,,,bahn3.jpg,,,,,
2025-10-21T10:09:37.412Z,257c33f5-0454-4dda-8d24-1492ff340bf7,image_pairs_bilingual_v1,trial,html-button-response,1648,schnee.jpg,schnee0.jpg,schnee3.jpg,schnee3.jpg,schnee0.jpg,,,schnee3.jpg,,,,,
2025-10-21T10:09:37.412Z,257c33f5-0454-4dda-8d24-1492ff340bf7,image_pairs_bilingual_v1,trial,html-button-response,1343,bahn.jpg,bahn0.jpg,bahn1.jpg,bahn1.jpg,bahn0.jpg,,,bahn0.jpg,,,,,
2025-10-21T10:09:37.412Z,257c33f5-0454-4dda-8d24-1492ff340bf7,image_pairs_bilingual_v1,trial,html-button-response,1563,weg.jpg,weg0.jpg,weg3.jpg,weg3.jpg,weg0.jpg,,,weg3.jpg,,,,,
2025-10-21T10:09:37.412Z,257c33f5-0454-4dda-8d24-1492ff340bf7,image_pairs_bilingual_v1,trial,html-button-response,1098,berge.jpg,berge0.jpg,berge2.jpg,berge2.jpg,berge0.jpg,,,berge0.jpg,,,,,
2025-10-21T10:09:37.412Z,257c33f5-0454-4dda-8d24-1492ff340bf7,image_pairs_bilingual_v1,trial,html-button-response,1119,turm.jpg,turm0.jpg,turm3.jpg,turm3.jpg,turm0.jpg,,,turm3.jpg,,,,,
2025-10-21T10:09:37.412Z,257c33f5-0454-4dda-8d24-1492ff340bf7,image_pairs_bilingual_v1,trial,html-button-response,1530,bäume.jpg,bäume1.jpg,bäume2.jpg,bäume1.jpg,bäume2.jpg,,,bäume2.jpg,,,,,
2025-10-21T10:09:37.412Z,257c33f5-0454-4dda-8d24-1492ff340bf7,image_pairs_bilingual_v1,trial,html-button-response,1097,bahn.jpg,bahn2.jpg,bahn3.jpg,bahn2.jpg,bahn3.jpg,,,bahn2.jpg,,,,,
2025-10-21T10:09:37.412Z,257c33f5-0454-4dda-8d24-1492ff340bf7,image_pairs_bilingual_v1,trial,html-button-response,1049,haus.jpg,haus0.jpg,haus1.jpg,haus0.jpg,haus1.jpg,,,haus0.jpg,,,,,
2025-10-21T10:09:37.412Z,257c33f5-0454-4dda-8d24-1492ff340bf7,image_pairs_bilingual_v1,trial,html-button-response,1277,baum.jpg,baum2.jpg,baum3.jpg,baum3.jpg,baum2.jpg,,,baum3.jpg,,,,,
2025-10-21T10:09:37.412Z,257c33f5-0454-4dda-8d24-1492ff340bf7,image_pairs_bilingual_v1,trial,html-button-response,1258,turm.jpg,turm0.jpg,turm1.jpg,turm1.jpg,turm0.jpg,,,turm1.jpg,,,,,
2025-10-21T10:09:37.412Z,257c33f5-0454-4dda-8d24-1492ff340bf7,image_pairs_bilingual_v1,trial,html-button-response,1338,bäume.jpg,bäume0.jpg,bäume2.jpg,bäume0.jpg,bäume2.jpg,,,bäume0.jpg,,,,,
2025-10-21T10:09:37.412Z,257c33f5-0454-4dda-8d24-1492ff340bf7,image_pairs_bilingual_v1,trial,html-button-response,1604,hütte.jpg,hütte1.jpg,hütte3.jpg,hütte3.jpg,hütte1.jpg,,,hütte1.jpg,,,,,
2025-10-21T10:09:37.412Z,257c33f5-0454-4dda-8d24-1492ff340bf7,image_pairs_bilingual_v1,trial,html-button-response,1573,bäume.jpg,bäume0.jpg,bäume1.jpg,bäume1.jpg,bäume0.jpg,,,bäume0.jpg,,,,,
2025-10-21T10:09:37.412Z,257c33f5-0454-4dda-8d24-1492ff340bf7,image_pairs_bilingual_v1,trial,html-button-response,1244,baum.jpg,baum1.jpg,baum2.jpg,baum2.jpg,baum1.jpg,,,baum1.jpg,,,,,
2025-10-21T10:09:37.412Z,257c33f5-0454-4dda-8d24-1492ff340bf7,image_pairs_bilingual_v1,trial,html-button-response,1064,weg.jpg,weg0.jpg,weg1.jpg,weg1.jpg,weg0.jpg,,,weg1.jpg,,,,,
2025-10-21T10:09:37.412Z,257c33f5-0454-4dda-8d24-1492ff340bf7,image_pairs_bilingual_v1,trial,html-button-response,880,weg.jpg,weg0.jpg,weg2.jpg,weg0.jpg,weg2.jpg,,,weg2.jpg,,,,,
2025-10-21T10:09:37.412Z,257c33f5-0454-4dda-8d24-1492ff340bf7,image_pairs_bilingual_v1,trial,html-button-response,951,bäume.jpg,bäume2.jpg,bäume3.jpg,bäume3.jpg,bäume2.jpg,,,bäume3.jpg,,,,,
2025-10-21T10:09:37.412Z,257c33f5-0454-4dda-8d24-1492ff340bf7,image_pairs_bilingual_v1,trial,html-button-response,911,bäume.jpg,bäume0.jpg,bäume3.jpg,bäume3.jpg,bäume0.jpg,,,bäume3.jpg,,,,,
2025-10-21T10:09:37.412Z,257c33f5-0454-4dda-8d24-1492ff340bf7,image_pairs_bilingual_v1,trial,html-button-response,2111,hütte.jpg,hütte0.jpg,hütte3.jpg,hütte3.jpg,hütte0.jpg,,,hütte3.jpg,,,,,
2025-10-21T10:09:37.412Z,257c33f5-0454-4dda-8d24-1492ff340bf7,image_pairs_bilingual_v1,trial,html-button-response,1932,haus.jpg,haus1.jpg,haus2.jpg,haus2.jpg,haus1.jpg,,,haus1.jpg,,,,,
2025-10-21T10:09:37.412Z,257c33f5-0454-4dda-8d24-1492ff340bf7,image_pairs_bilingual_v1,trial,html-button-response,837,haus.jpg,haus0.jpg,haus2.jpg,haus0.jpg,haus2.jpg,,,haus0.jpg,,,,,
2025-10-21T10:09:37.412Z,257c33f5-0454-4dda-8d24-1492ff340bf7,image_pairs_bilingual_v1,trial,html-button-response,836,turm.jpg,turm0.jpg,turm2.jpg,turm2.jpg,turm0.jpg,,,turm2.jpg,,,,,
2025-10-21T10:09:37.412Z,257c33f5-0454-4dda-8d24-1492ff340bf7,image_pairs_bilingual_v1,trial,html-button-response,1221,berge.jpg,berge0.jpg,berge1.jpg,berge0.jpg,berge1.jpg,,,berge1.jpg,,,,,
2025-10-21T10:09:37.412Z,257c33f5-0454-4dda-8d24-1492ff340bf7,image_pairs_bilingual_v1,trial,html-button-response,1677,berg.jpg,berg1.jpg,berg2.jpg,berg2.jpg,berg1.jpg,,,berg1.jpg,,,,,
2025-10-21T10:09:37.412Z,257c33f5-0454-4dda-8d24-1492ff340bf7,image_pairs_bilingual_v1,trial,html-button-response,1147,schnee.jpg,schnee1.jpg,schnee3.jpg,schnee1.jpg,schnee3.jpg,,,schnee3.jpg,,,,,
2025-10-21T10:09:37.412Z,257c33f5-0454-4dda-8d24-1492ff340bf7,image_pairs_bilingual_v1,trial,html-button-response,1107,haus.jpg,haus0.jpg,haus3.jpg,haus3.jpg,haus0.jpg,,,haus0.jpg,,,,,
2025-10-21T10:09:37.412Z,257c33f5-0454-4dda-8d24-1492ff340bf7,image_pairs_bilingual_v1,trial,html-button-response,1559,berge.jpg,berge0.jpg,berge3.jpg,berge3.jpg,berge0.jpg,,,berge3.jpg,,,,,
2025-10-21T10:09:37.412Z,257c33f5-0454-4dda-8d24-1492ff340bf7,image_pairs_bilingual_v1,trial,html-button-response,2048,baum.jpg,baum1.jpg,baum3.jpg,baum3.jpg,baum1.jpg,,,baum1.jpg,,,,,
2025-10-21T10:09:37.412Z,257c33f5-0454-4dda-8d24-1492ff340bf7,image_pairs_bilingual_v1,trial,html-button-response,890,baum.jpg,baum0.jpg,baum1.jpg,baum1.jpg,baum0.jpg,,,baum1.jpg,,,,,
2025-10-21T10:09:37.412Z,257c33f5-0454-4dda-8d24-1492ff340bf7,image_pairs_bilingual_v1,trial,html-button-response,1092,turm.jpg,turm1.jpg,turm2.jpg,turm1.jpg,turm2.jpg,,,turm2.jpg,,,,,
2025-10-21T10:09:37.412Z,257c33f5-0454-4dda-8d24-1492ff340bf7,image_pairs_bilingual_v1,trial,html-button-response,1031,berg.jpg,berg2.jpg,berg3.jpg,berg2.jpg,berg3.jpg,,,berg3.jpg,,,,,
2025-10-21T10:09:37.412Z,257c33f5-0454-4dda-8d24-1492ff340bf7,image_pairs_bilingual_v1,trial,html-button-response,2351,weg.jpg,weg1.jpg,weg2.jpg,weg1.jpg,weg2.jpg,,,weg1.jpg,,,,,
2025-10-21T10:09:37.412Z,257c33f5-0454-4dda-8d24-1492ff340bf7,image_pairs_bilingual_v1,trial,html-button-response,971,haus.jpg,haus2.jpg,haus3.jpg,haus2.jpg,haus3.jpg,,,haus3.jpg,,,,,
2025-10-21T10:09:37.412Z,257c33f5-0454-4dda-8d24-1492ff340bf7,image_pairs_bilingual_v1,feedback,survey-html-form,1390,,,,,,,,,,,,,
2025-10-21T10:43:08.679Z,21ba205f-da49-492d-857f-f5a4e6c9a336,image_pairs_bilingual_v1,consent,html-button-response,6183,,,,,,,,,,,,,
2025-10-21T10:43:08.679Z,21ba205f-da49-492d-857f-f5a4e6c9a336,image_pairs_bilingual_v1,intro,html-button-response,22312,,,,,,,,,,,,,
2025-10-21T10:43:08.679Z,21ba205f-da49-492d-857f-f5a4e6c9a336,image_pairs_bilingual_v1,demographics,survey-html-form,9885,,,,,,,,,,,24,m,
2025-10-21T10:43:08.679Z,21ba205f-da49-492d-857f-f5a4e6c9a336,image_pairs_bilingual_v1,trial,html-button-response,17816,haus.jpg,haus2.jpg,haus3.jpg,haus2.jpg,haus3.jpg,,,haus3.jpg,,,,,
2025-10-21T10:43:08.679Z,21ba205f-da49-492d-857f-f5a4e6c9a336,image_pairs_bilingual_v1,trial,html-button-response,54710,weg.jpg,weg1.jpg,weg2.jpg,weg1.jpg,weg2.jpg,,,weg2.jpg,,,,,
2025-10-21T10:43:08.679Z,21ba205f-da49-492d-857f-f5a4e6c9a336,image_pairs_bilingual_v1,trial,html-button-response,7061,hütte.jpg,hütte2.jpg,hütte3.jpg,hütte2.jpg,hütte3.jpg,,,hütte3.jpg,,,,,
2025-10-21T10:43:08.679Z,21ba205f-da49-492d-857f-f5a4e6c9a336,image_pairs_bilingual_v1,trial,html-button-response,20334,baum.jpg,baum0.jpg,baum3.jpg,baum0.jpg,baum3.jpg,,,baum0.jpg,,,,,
2025-10-21T10:43:08.679Z,21ba205f-da49-492d-857f-f5a4e6c9a336,image_pairs_bilingual_v1,trial,html-button-response,19645,bahn.jpg,bahn0.jpg,bahn1.jpg,bahn1.jpg,bahn0.jpg,,,bahn1.jpg,,,,,
2025-10-21T10:43:08.679Z,21ba205f-da49-492d-857f-f5a4e6c9a336,image_pairs_bilingual_v1,trial,html-button-response,18922,schnee.jpg,schnee0.jpg,schnee2.jpg,schnee2.jpg,schnee0.jpg,,,schnee2.jpg,,,,,
2025-10-21T10:43:08.679Z,21ba205f-da49-492d-857f-f5a4e6c9a336,image_pairs_bilingual_v1,trial,html-button-response,8698,baum.jpg,baum1.jpg,baum3.jpg,baum3.jpg,baum1.jpg,,,baum1.jpg,,,,,
2025-10-21T10:43:08.679Z,21ba205f-da49-492d-857f-f5a4e6c9a336,image_pairs_bilingual_v1,trial,html-button-response,11312,hütte.jpg,hütte1.jpg,hütte3.jpg,hütte3.jpg,hütte1.jpg,,,hütte3.jpg,,,,,
2025-10-21T10:43:08.679Z,21ba205f-da49-492d-857f-f5a4e6c9a336,image_pairs_bilingual_v1,trial,html-button-response,7565,hütte.jpg,hütte1.jpg,hütte2.jpg,hütte1.jpg,hütte2.jpg,,,hütte1.jpg,,,,,
2025-10-21T10:43:08.679Z,21ba205f-da49-492d-857f-f5a4e6c9a336,image_pairs_bilingual_v1,trial,html-button-response,11186,hütte.jpg,hütte0.jpg,hütte2.jpg,hütte2.jpg,hütte0.jpg,,,hütte0.jpg,,,,,
2025-10-21T10:43:08.679Z,21ba205f-da49-492d-857f-f5a4e6c9a336,image_pairs_bilingual_v1,trial,html-button-response,28784,bahn.jpg,bahn1.jpg,bahn2.jpg,bahn2.jpg,bahn1.jpg,,,bahn2.jpg,,,,,
2025-10-21T10:43:08.679Z,21ba205f-da49-492d-857f-f5a4e6c9a336,image_pairs_bilingual_v1,trial,html-button-response,14167,berge.jpg,berge0.jpg,berge3.jpg,berge0.jpg,berge3.jpg,,,berge0.jpg,,,,,
2025-10-21T10:43:08.679Z,21ba205f-da49-492d-857f-f5a4e6c9a336,image_pairs_bilingual_v1,trial,html-button-response,7638,schnee.jpg,schnee0.jpg,schnee1.jpg,schnee0.jpg,schnee1.jpg,,,schnee0.jpg,,,,,
2025-10-21T10:43:08.679Z,21ba205f-da49-492d-857f-f5a4e6c9a336,image_pairs_bilingual_v1,trial,html-button-response,13507,bäume.jpg,bäume1.jpg,bäume2.jpg,bäume2.jpg,bäume1.jpg,,,bäume2.jpg,,,,,
2025-10-21T10:43:08.679Z,21ba205f-da49-492d-857f-f5a4e6c9a336,image_pairs_bilingual_v1,trial,html-button-response,24886,haus.jpg,haus1.jpg,haus2.jpg,haus1.jpg,haus2.jpg,,,haus1.jpg,,,,,
2025-10-21T10:43:08.679Z,21ba205f-da49-492d-857f-f5a4e6c9a336,image_pairs_bilingual_v1,trial,html-button-response,3278,bäume.jpg,bäume2.jpg,bäume3.jpg,bäume2.jpg,bäume3.jpg,,,bäume3.jpg,,,,,
2025-10-21T10:43:08.679Z,21ba205f-da49-492d-857f-f5a4e6c9a336,image_pairs_bilingual_v1,trial,html-button-response,9713,hütte.jpg,hütte0.jpg,hütte3.jpg,hütte0.jpg,hütte3.jpg,,,hütte0.jpg,,,,,
2025-10-21T10:43:08.679Z,21ba205f-da49-492d-857f-f5a4e6c9a336,image_pairs_bilingual_v1,trial,html-button-response,22787,berge.jpg,berge1.jpg,berge3.jpg,berge3.jpg,berge1.jpg,,,berge1.jpg,,,,,
2025-10-21T10:43:08.679Z,21ba205f-da49-492d-857f-f5a4e6c9a336,image_pairs_bilingual_v1,trial,html-button-response,7131,hütte.jpg,hütte0.jpg,hütte1.jpg,hütte0.jpg,hütte1.jpg,,,hütte0.jpg,,,,,
2025-10-21T10:43:08.679Z,21ba205f-da49-492d-857f-f5a4e6c9a336,image_pairs_bilingual_v1,trial,html-button-response,3763,weg.jpg,weg0.jpg,weg1.jpg,weg0.jpg,weg1.jpg,,,weg1.jpg,,,,,
2025-10-21T10:43:08.679Z,21ba205f-da49-492d-857f-f5a4e6c9a336,image_pairs_bilingual_v1,trial,html-button-response,5138,berg.jpg,berg2.jpg,berg3.jpg,berg3.jpg,berg2.jpg,,,berg3.jpg,,,,,
2025-10-21T10:43:08.679Z,21ba205f-da49-492d-857f-f5a4e6c9a336,image_pairs_bilingual_v1,trial,html-button-response,6854,weg.jpg,weg0.jpg,weg3.jpg,weg3.jpg,weg0.jpg,,,weg3.jpg,,,,,
2025-10-21T10:43:08.679Z,21ba205f-da49-492d-857f-f5a4e6c9a336,image_pairs_bilingual_v1,trial,html-button-response,4214,turm.jpg,turm0.jpg,turm1.jpg,turm0.jpg,turm1.jpg,,,turm1.jpg,,,,,
2025-10-21T10:43:08.679Z,21ba205f-da49-492d-857f-f5a4e6c9a336,image_pairs_bilingual_v1,trial,html-button-response,2655,turm.jpg,turm1.jpg,turm3.jpg,turm3.jpg,turm1.jpg,,,turm3.jpg,,,,,
2025-10-21T10:43:08.679Z,21ba205f-da49-492d-857f-f5a4e6c9a336,image_pairs_bilingual_v1,trial,html-button-response,7403,turm.jpg,turm2.jpg,turm3.jpg,turm3.jpg,turm2.jpg,,,turm3.jpg,,,,,
2025-10-21T10:43:08.680Z,21ba205f-da49-492d-857f-f5a4e6c9a336,image_pairs_bilingual_v1,trial,html-button-response,5271,berge.jpg,berge2.jpg,berge3.jpg,berge3.jpg,berge2.jpg,,,berge3.jpg,,,,,
2025-10-21T10:43:08.680Z,21ba205f-da49-492d-857f-f5a4e6c9a336,image_pairs_bilingual_v1,trial,html-button-response,4278,weg.jpg,weg0.jpg,weg2.jpg,weg2.jpg,weg0.jpg,,,weg2.jpg,,,,,
2025-10-21T10:43:08.680Z,21ba205f-da49-492d-857f-f5a4e6c9a336,image_pairs_bilingual_v1,trial,html-button-response,8277,baum.jpg,baum1.jpg,baum2.jpg,baum2.jpg,baum1.jpg,,,baum1.jpg,,,,,
2025-10-21T10:43:08.680Z,21ba205f-da49-492d-857f-f5a4e6c9a336,image_pairs_bilingual_v1,trial,html-button-response,45059,bäume.jpg,bäume0.jpg,bäume1.jpg,bäume0.jpg,bäume1.jpg,,,bäume1.jpg,,,,,
2025-10-21T10:43:08.680Z,21ba205f-da49-492d-857f-f5a4e6c9a336,image_pairs_bilingual_v1,trial,html-button-response,7037,turm.jpg,turm1.jpg,turm2.jpg,turm2.jpg,turm1.jpg,,,turm2.jpg,,,,,
2025-10-21T10:43:08.680Z,21ba205f-da49-492d-857f-f5a4e6c9a336,image_pairs_bilingual_v1,trial,html-button-response,4183,berg.jpg,berg1.jpg,berg2.jpg,berg2.jpg,berg1.jpg,,,berg2.jpg,,,,,
2025-10-21T10:43:08.680Z,21ba205f-da49-492d-857f-f5a4e6c9a336,image_pairs_bilingual_v1,trial,html-button-response,4535,berg.jpg,berg1.jpg,berg3.jpg,berg3.jpg,berg1.jpg,,,berg3.jpg,,,,,
2025-10-21T10:43:08.680Z,21ba205f-da49-492d-857f-f5a4e6c9a336,image_pairs_bilingual_v1,trial,html-button-response,3053,schnee.jpg,schnee1.jpg,schnee2.jpg,schnee1.jpg,schnee2.jpg,,,schnee2.jpg,,,,,
2025-10-21T10:43:08.680Z,21ba205f-da49-492d-857f-f5a4e6c9a336,image_pairs_bilingual_v1,trial,html-button-response,12229,berg.jpg,berg0.jpg,berg1.jpg,berg1.jpg,berg0.jpg,,,berg1.jpg,,,,,
2025-10-21T10:43:08.680Z,21ba205f-da49-492d-857f-f5a4e6c9a336,image_pairs_bilingual_v1,trial,html-button-response,3448,turm.jpg,turm0.jpg,turm3.jpg,turm3.jpg,turm0.jpg,,,turm3.jpg,,,,,
2025-10-21T10:43:08.680Z,21ba205f-da49-492d-857f-f5a4e6c9a336,image_pairs_bilingual_v1,trial,html-button-response,51116,haus.jpg,haus0.jpg,haus1.jpg,haus0.jpg,haus1.jpg,,,haus1.jpg,,,,,
2025-10-21T10:43:08.680Z,21ba205f-da49-492d-857f-f5a4e6c9a336,image_pairs_bilingual_v1,trial,html-button-response,3304,schnee.jpg,schnee2.jpg,schnee3.jpg,schnee3.jpg,schnee2.jpg,,,schnee3.jpg,,,,,
2025-10-21T10:43:08.680Z,21ba205f-da49-492d-857f-f5a4e6c9a336,image_pairs_bilingual_v1,trial,html-button-response,2869,bäume.jpg,bäume0.jpg,bäume2.jpg,bäume2.jpg,bäume0.jpg,,,bäume0.jpg,,,,,
2025-10-21T10:43:08.680Z,21ba205f-da49-492d-857f-f5a4e6c9a336,image_pairs_bilingual_v1,trial,html-button-response,11503,berg.jpg,berg0.jpg,berg2.jpg,berg0.jpg,berg2.jpg,,,berg2.jpg,,,,,
2025-10-21T10:43:08.680Z,21ba205f-da49-492d-857f-f5a4e6c9a336,image_pairs_bilingual_v1,trial,html-button-response,5079,haus.jpg,haus0.jpg,haus3.jpg,haus3.jpg,haus0.jpg,,,haus3.jpg,,,,,
2025-10-21T10:43:08.680Z,21ba205f-da49-492d-857f-f5a4e6c9a336,image_pairs_bilingual_v1,trial,html-button-response,2713,schnee.jpg,schnee0.jpg,schnee3.jpg,schnee0.jpg,schnee3.jpg,,,schnee3.jpg,,,,,
2025-10-21T10:43:08.680Z,21ba205f-da49-492d-857f-f5a4e6c9a336,image_pairs_bilingual_v1,trial,html-button-response,37546,weg.jpg,weg2.jpg,weg3.jpg,weg3.jpg,weg2.jpg,,,weg3.jpg,,,,,
2025-10-21T10:43:08.680Z,21ba205f-da49-492d-857f-f5a4e6c9a336,image_pairs_bilingual_v1,trial,html-button-response,5412,baum.jpg,baum0.jpg,baum2.jpg,baum2.jpg,baum0.jpg,,,baum0.jpg,,,,,
2025-10-21T10:43:08.680Z,21ba205f-da49-492d-857f-f5a4e6c9a336,image_pairs_bilingual_v1,trial,html-button-response,6957,weg.jpg,weg1.jpg,weg3.jpg,weg1.jpg,weg3.jpg,,,weg3.jpg,,,,,
2025-10-21T10:43:08.680Z,21ba205f-da49-492d-857f-f5a4e6c9a336,image_pairs_bilingual_v1,trial,html-button-response,3914,bahn.jpg,bahn0.jpg,bahn2.jpg,bahn2.jpg,bahn0.jpg,,,bahn2.jpg,,,,,
2025-10-21T10:43:08.680Z,21ba205f-da49-492d-857f-f5a4e6c9a336,image_pairs_bilingual_v1,trial,html-button-response,3822,turm.jpg,turm0.jpg,turm2.jpg,turm0.jpg,turm2.jpg,,,turm2.jpg,,,,,
2025-10-21T10:43:08.680Z,21ba205f-da49-492d-857f-f5a4e6c9a336,image_pairs_bilingual_v1,trial,html-button-response,3970,haus.jpg,haus1.jpg,haus3.jpg,haus3.jpg,haus1.jpg,,,haus3.jpg,,,,,
2025-10-21T10:43:08.680Z,21ba205f-da49-492d-857f-f5a4e6c9a336,image_pairs_bilingual_v1,trial,html-button-response,3681,berge.jpg,berge0.jpg,berge1.jpg,berge1.jpg,berge0.jpg,,,berge1.jpg,,,,,
2025-10-21T10:43:08.680Z,21ba205f-da49-492d-857f-f5a4e6c9a336,image_pairs_bilingual_v1,trial,html-button-response,1752,schnee.jpg,schnee1.jpg,schnee3.jpg,schnee1.jpg,schnee3.jpg,,,schnee3.jpg,,,,,
2025-10-21T10:43:08.680Z,21ba205f-da49-492d-857f-f5a4e6c9a336,image_pairs_bilingual_v1,trial,html-button-response,2239,baum.jpg,baum0.jpg,baum1.jpg,baum1.jpg,baum0.jpg,,,baum0.jpg,,,,,
2025-10-21T10:43:08.680Z,21ba205f-da49-492d-857f-f5a4e6c9a336,image_pairs_bilingual_v1,trial,html-button-response,3753,bäume.jpg,bäume1.jpg,bäume3.jpg,bäume1.jpg,bäume3.jpg,,,bäume3.jpg,,,,,
2025-10-21T10:43:08.680Z,21ba205f-da49-492d-857f-f5a4e6c9a336,image_pairs_bilingual_v1,trial,html-button-response,2456,berge.jpg,berge0.jpg,berge2.jpg,berge2.jpg,berge0.jpg,,,berge0.jpg,,,,,
2025-10-21T10:43:08.680Z,21ba205f-da49-492d-857f-f5a4e6c9a336,image_pairs_bilingual_v1,trial,html-button-response,6870,baum.jpg,baum2.jpg,baum3.jpg,baum3.jpg,baum2.jpg,,,baum2.jpg,,,,,
2025-10-21T10:43:08.680Z,21ba205f-da49-492d-857f-f5a4e6c9a336,image_pairs_bilingual_v1,trial,html-button-response,6004,bahn.jpg,bahn1.jpg,bahn3.jpg,bahn3.jpg,bahn1.jpg,,,bahn1.jpg,,,,,
2025-10-21T10:43:08.680Z,21ba205f-da49-492d-857f-f5a4e6c9a336,image_pairs_bilingual_v1,trial,html-button-response,6033,bäume.jpg,bäume0.jpg,bäume3.jpg,bäume0.jpg,bäume3.jpg,,,bäume0.jpg,,,,,
2025-10-21T10:43:08.680Z,21ba205f-da49-492d-857f-f5a4e6c9a336,image_pairs_bilingual_v1,trial,html-button-response,6252,bahn.jpg,bahn0.jpg,bahn3.jpg,bahn3.jpg,bahn0.jpg,,,bahn3.jpg,,,,,
2025-10-21T10:43:08.680Z,21ba205f-da49-492d-857f-f5a4e6c9a336,image_pairs_bilingual_v1,trial,html-button-response,2600,haus.jpg,haus0.jpg,haus2.jpg,haus2.jpg,haus0.jpg,,,haus2.jpg,,,,,
2025-10-21T10:43:08.680Z,21ba205f-da49-492d-857f-f5a4e6c9a336,image_pairs_bilingual_v1,trial,html-button-response,23576,bahn.jpg,bahn2.jpg,bahn3.jpg,bahn2.jpg,bahn3.jpg,,,bahn3.jpg,,,,,
2025-10-21T10:43:08.680Z,21ba205f-da49-492d-857f-f5a4e6c9a336,image_pairs_bilingual_v1,trial,html-button-response,2953,berg.jpg,berg0.jpg,berg3.jpg,berg3.jpg,berg0.jpg,,,berg3.jpg,,,,,
2025-10-21T10:43:08.680Z,21ba205f-da49-492d-857f-f5a4e6c9a336,image_pairs_bilingual_v1,trial,html-button-response,1719,berge.jpg,berge1.jpg,berge2.jpg,berge2.jpg,berge1.jpg,,,berge1.jpg,,,,,
2025-10-21T10:43:08.680Z,21ba205f-da49-492d-857f-f5a4e6c9a336,image_pairs_bilingual_v1,feedback,survey-html-form,30964,,,,,,,,,,,,,Die Bilder sind ein echter Fiebertraum
2025-10-21T10:51:47.857Z,98c10f9d-03a0-460a-b491-f905269cb2e0,image_pairs_bilingual_v1,consent,html-button-response,2809,,,,,,,,,,,,,
2025-10-21T10:51:47.857Z,98c10f9d-03a0-460a-b491-f905269cb2e0,image_pairs_bilingual_v1,intro,html-button-response,18182,,,,,,,,,,,,,
2025-10-21T10:51:47.857Z,98c10f9d-03a0-460a-b491-f905269cb2e0,image_pairs_bilingual_v1,demographics,survey-html-form,12254,,,,,,,,,,,26,m,
2025-10-21T10:51:47.857Z,98c10f9d-03a0-460a-b491-f905269cb2e0,image_pairs_bilingual_v1,trial,html-button-response,2904,haus.jpg,haus1.jpg,haus3.jpg,haus3.jpg,haus1.jpg,,,haus1.jpg,,,,,
2025-10-21T10:51:47.857Z,98c10f9d-03a0-460a-b491-f905269cb2e0,image_pairs_bilingual_v1,trial,html-button-response,12762,berg.jpg,berg2.jpg,berg3.jpg,berg3.jpg,berg2.jpg,,,berg3.jpg,,,,,
2025-10-21T10:51:47.857Z,98c10f9d-03a0-460a-b491-f905269cb2e0,image_pairs_bilingual_v1,trial,html-button-response,3970,berge.jpg,berge0.jpg,berge1.jpg,berge0.jpg,berge1.jpg,,,berge1.jpg,,,,,
2025-10-21T10:51:47.857Z,98c10f9d-03a0-460a-b491-f905269cb2e0,image_pairs_bilingual_v1,trial,html-button-response,9216,bahn.jpg,bahn2.jpg,bahn3.jpg,bahn3.jpg,bahn2.jpg,,,bahn3.jpg,,,,,
2025-10-21T10:51:47.857Z,98c10f9d-03a0-460a-b491-f905269cb2e0,image_pairs_bilingual_v1,trial,html-button-response,5354,hütte.jpg,hütte0.jpg,hütte3.jpg,hütte3.jpg,hütte0.jpg,,,hütte0.jpg,,,,,
2025-10-21T10:51:47.857Z,98c10f9d-03a0-460a-b491-f905269cb2e0,image_pairs_bilingual_v1,trial,html-button-response,3384,schnee.jpg,schnee1.jpg,schnee3.jpg,schnee3.jpg,schnee1.jpg,,,schnee3.jpg,,,,,
2025-10-21T10:51:47.857Z,98c10f9d-03a0-460a-b491-f905269cb2e0,image_pairs_bilingual_v1,trial,html-button-response,7152,berge.jpg,berge1.jpg,berge3.jpg,berge1.jpg,berge3.jpg,,,berge1.jpg,,,,,
2025-10-21T10:51:47.857Z,98c10f9d-03a0-460a-b491-f905269cb2e0,image_pairs_bilingual_v1,trial,html-button-response,5388,turm.jpg,turm1.jpg,turm3.jpg,turm3.jpg,turm1.jpg,,,turm3.jpg,,,,,
2025-10-21T10:51:47.857Z,98c10f9d-03a0-460a-b491-f905269cb2e0,image_pairs_bilingual_v1,trial,html-button-response,8292,bäume.jpg,bäume0.jpg,bäume2.jpg,bäume2.jpg,bäume0.jpg,,,bäume0.jpg,,,,,
2025-10-21T10:51:47.857Z,98c10f9d-03a0-460a-b491-f905269cb2e0,image_pairs_bilingual_v1,trial,html-button-response,9299,baum.jpg,baum0.jpg,baum3.jpg,baum3.jpg,baum0.jpg,,,baum3.jpg,,,,,
2025-10-21T10:51:47.857Z,98c10f9d-03a0-460a-b491-f905269cb2e0,image_pairs_bilingual_v1,trial,html-button-response,12311,baum.jpg,baum0.jpg,baum1.jpg,baum0.jpg,baum1.jpg,,,baum1.jpg,,,,,
2025-10-21T10:51:47.857Z,98c10f9d-03a0-460a-b491-f905269cb2e0,image_pairs_bilingual_v1,trial,html-button-response,5537,berge.jpg,berge0.jpg,berge2.jpg,berge0.jpg,berge2.jpg,,,berge0.jpg,,,,,
2025-10-21T10:51:47.857Z,98c10f9d-03a0-460a-b491-f905269cb2e0,image_pairs_bilingual_v1,trial,html-button-response,3156,baum.jpg,baum0.jpg,baum2.jpg,baum0.jpg,baum2.jpg,,,baum0.jpg,,,,,
2025-10-21T10:51:47.857Z,98c10f9d-03a0-460a-b491-f905269cb2e0,image_pairs_bilingual_v1,trial,html-button-response,8176,bahn.jpg,bahn1.jpg,bahn3.jpg,bahn3.jpg,bahn1.jpg,,,bahn3.jpg,,,,,
2025-10-21T10:51:47.857Z,98c10f9d-03a0-460a-b491-f905269cb2e0,image_pairs_bilingual_v1,trial,html-button-response,3911,bäume.jpg,bäume1.jpg,bäume2.jpg,bäume1.jpg,bäume2.jpg,,,bäume1.jpg,,,,,
2025-10-21T10:51:47.857Z,98c10f9d-03a0-460a-b491-f905269cb2e0,image_pairs_bilingual_v1,trial,html-button-response,7832,berge.jpg,berge0.jpg,berge3.jpg,berge0.jpg,berge3.jpg,,,berge3.jpg,,,,,
2025-10-21T10:51:47.857Z,98c10f9d-03a0-460a-b491-f905269cb2e0,image_pairs_bilingual_v1,trial,html-button-response,3624,baum.jpg,baum1.jpg,baum2.jpg,baum1.jpg,baum2.jpg,,,baum1.jpg,,,,,
2025-10-21T10:51:47.857Z,98c10f9d-03a0-460a-b491-f905269cb2e0,image_pairs_bilingual_v1,trial,html-button-response,7180,turm.jpg,turm1.jpg,turm2.jpg,turm1.jpg,turm2.jpg,,,turm2.jpg,,,,,
2025-10-21T10:51:47.857Z,98c10f9d-03a0-460a-b491-f905269cb2e0,image_pairs_bilingual_v1,trial,html-button-response,9486,schnee.jpg,schnee2.jpg,schnee3.jpg,schnee3.jpg,schnee2.jpg,,,schnee3.jpg,,,,,
2025-10-21T10:51:47.857Z,98c10f9d-03a0-460a-b491-f905269cb2e0,image_pairs_bilingual_v1,trial,html-button-response,6231,weg.jpg,weg2.jpg,weg3.jpg,weg2.jpg,weg3.jpg,,,weg3.jpg,,,,,
2025-10-21T10:51:47.857Z,98c10f9d-03a0-460a-b491-f905269cb2e0,image_pairs_bilingual_v1,trial,html-button-response,3943,bäume.jpg,bäume0.jpg,bäume3.jpg,bäume3.jpg,bäume0.jpg,,,bäume3.jpg,,,,,
2025-10-21T10:51:47.857Z,98c10f9d-03a0-460a-b491-f905269cb2e0,image_pairs_bilingual_v1,trial,html-button-response,3450,berg.jpg,berg0.jpg,berg1.jpg,berg0.jpg,berg1.jpg,,,berg1.jpg,,,,,
2025-10-21T10:51:47.857Z,98c10f9d-03a0-460a-b491-f905269cb2e0,image_pairs_bilingual_v1,trial,html-button-response,3404,bahn.jpg,bahn0.jpg,bahn3.jpg,bahn3.jpg,bahn0.jpg,,,bahn3.jpg,,,,,
2025-10-21T10:51:47.857Z,98c10f9d-03a0-460a-b491-f905269cb2e0,image_pairs_bilingual_v1,trial,html-button-response,3220,bahn.jpg,bahn0.jpg,bahn1.jpg,bahn0.jpg,bahn1.jpg,,,bahn1.jpg,,,,,
2025-10-21T10:51:47.857Z,98c10f9d-03a0-460a-b491-f905269cb2e0,image_pairs_bilingual_v1,trial,html-button-response,1705,berge.jpg,berge1.jpg,berge2.jpg,berge2.jpg,berge1.jpg,,,berge1.jpg,,,,,
2025-10-21T10:51:47.857Z,98c10f9d-03a0-460a-b491-f905269cb2e0,image_pairs_bilingual_v1,trial,html-button-response,4310,hütte.jpg,hütte2.jpg,hütte3.jpg,hütte3.jpg,hütte2.jpg,,,hütte3.jpg,,,,,
2025-10-21T10:51:47.857Z,98c10f9d-03a0-460a-b491-f905269cb2e0,image_pairs_bilingual_v1,trial,html-button-response,3290,berg.jpg,berg1.jpg,berg3.jpg,berg1.jpg,berg3.jpg,,,berg3.jpg,,,,,
2025-10-21T10:51:47.857Z,98c10f9d-03a0-460a-b491-f905269cb2e0,image_pairs_bilingual_v1,trial,html-button-response,2287,berg.jpg,berg0.jpg,berg3.jpg,berg3.jpg,berg0.jpg,,,berg3.jpg,,,,,
2025-10-21T10:51:47.857Z,98c10f9d-03a0-460a-b491-f905269cb2e0,image_pairs_bilingual_v1,trial,html-button-response,2739,haus.jpg,haus2.jpg,haus3.jpg,haus3.jpg,haus2.jpg,,,haus2.jpg,,,,,
2025-10-21T10:51:47.857Z,98c10f9d-03a0-460a-b491-f905269cb2e0,image_pairs_bilingual_v1,trial,html-button-response,2232,schnee.jpg,schnee1.jpg,schnee2.jpg,schnee2.jpg,schnee1.jpg,,,schnee2.jpg,,,,,
2025-10-21T10:51:47.857Z,98c10f9d-03a0-460a-b491-f905269cb2e0,image_pairs_bilingual_v1,trial,html-button-response,1917,turm.jpg,turm0.jpg,turm1.jpg,turm1.jpg,turm0.jpg,,,turm1.jpg,,,,,
2025-10-21T10:51:47.857Z,98c10f9d-03a0-460a-b491-f905269cb2e0,image_pairs_bilingual_v1,trial,html-button-response,3523,baum.jpg,baum2.jpg,baum3.jpg,baum3.jpg,baum2.jpg,,,baum2.jpg,,,,,
2025-10-21T10:51:47.857Z,98c10f9d-03a0-460a-b491-f905269cb2e0,image_pairs_bilingual_v1,trial,html-button-response,5055,weg.jpg,weg1.jpg,weg3.jpg,weg3.jpg,weg1.jpg,,,weg3.jpg,,,,,
2025-10-21T10:51:47.857Z,98c10f9d-03a0-460a-b491-f905269cb2e0,image_pairs_bilingual_v1,trial,html-button-response,3799,berg.jpg,berg1.jpg,berg2.jpg,berg1.jpg,berg2.jpg,,,berg2.jpg,,,,,
2025-10-21T10:51:47.857Z,98c10f9d-03a0-460a-b491-f905269cb2e0,image_pairs_bilingual_v1,trial,html-button-response,8283,hütte.jpg,hütte0.jpg,hütte1.jpg,hütte1.jpg,hütte0.jpg,,,hütte1.jpg,,,,,
2025-10-21T10:51:47.857Z,98c10f9d-03a0-460a-b491-f905269cb2e0,image_pairs_bilingual_v1,trial,html-button-response,1917,schnee.jpg,schnee0.jpg,schnee3.jpg,schnee3.jpg,schnee0.jpg,,,schnee3.jpg,,,,,
2025-10-21T10:51:47.857Z,98c10f9d-03a0-460a-b491-f905269cb2e0,image_pairs_bilingual_v1,trial,html-button-response,1937,schnee.jpg,schnee0.jpg,schnee2.jpg,schnee2.jpg,schnee0.jpg,,,schnee2.jpg,,,,,
2025-10-21T10:51:47.857Z,98c10f9d-03a0-460a-b491-f905269cb2e0,image_pairs_bilingual_v1,trial,html-button-response,2439,baum.jpg,baum1.jpg,baum3.jpg,baum1.jpg,baum3.jpg,,,baum1.jpg,,,,,
2025-10-21T10:51:47.857Z,98c10f9d-03a0-460a-b491-f905269cb2e0,image_pairs_bilingual_v1,trial,html-button-response,1885,weg.jpg,weg0.jpg,weg1.jpg,weg1.jpg,weg0.jpg,,,weg1.jpg,,,,,
2025-10-21T10:51:47.857Z,98c10f9d-03a0-460a-b491-f905269cb2e0,image_pairs_bilingual_v1,trial,html-button-response,3277,haus.jpg,haus0.jpg,haus3.jpg,haus3.jpg,haus0.jpg,,,haus3.jpg,,,,,
2025-10-21T10:51:47.857Z,98c10f9d-03a0-460a-b491-f905269cb2e0,image_pairs_bilingual_v1,trial,html-button-response,3890,turm.jpg,turm0.jpg,turm3.jpg,turm3.jpg,turm0.jpg,,,turm3.jpg,,,,,
2025-10-21T10:51:47.857Z,98c10f9d-03a0-460a-b491-f905269cb2e0,image_pairs_bilingual_v1,trial,html-button-response,2462,weg.jpg,weg1.jpg,weg2.jpg,weg2.jpg,weg1.jpg,,,weg1.jpg,,,,,
2025-10-21T10:51:47.857Z,98c10f9d-03a0-460a-b491-f905269cb2e0,image_pairs_bilingual_v1,trial,html-button-response,2825,bäume.jpg,bäume0.jpg,bäume1.jpg,bäume1.jpg,bäume0.jpg,,,bäume0.jpg,,,,,
2025-10-21T10:51:47.857Z,98c10f9d-03a0-460a-b491-f905269cb2e0,image_pairs_bilingual_v1,trial,html-button-response,2597,schnee.jpg,schnee0.jpg,schnee1.jpg,schnee1.jpg,schnee0.jpg,,,schnee1.jpg,,,,,
2025-10-21T10:51:47.857Z,98c10f9d-03a0-460a-b491-f905269cb2e0,image_pairs_bilingual_v1,trial,html-button-response,4987,haus.jpg,haus0.jpg,haus1.jpg,haus0.jpg,haus1.jpg,,,haus1.jpg,,,,,
2025-10-21T10:51:47.857Z,98c10f9d-03a0-460a-b491-f905269cb2e0,image_pairs_bilingual_v1,trial,html-button-response,3769,bahn.jpg,bahn1.jpg,bahn2.jpg,bahn1.jpg,bahn2.jpg,,,bahn1.jpg,,,,,
2025-10-21T10:51:47.857Z,98c10f9d-03a0-460a-b491-f905269cb2e0,image_pairs_bilingual_v1,trial,html-button-response,3466,weg.jpg,weg0.jpg,weg2.jpg,weg0.jpg,weg2.jpg,,,weg2.jpg,,,,,
2025-10-21T10:51:47.857Z,98c10f9d-03a0-460a-b491-f905269cb2e0,image_pairs_bilingual_v1,trial,html-button-response,1832,turm.jpg,turm0.jpg,turm2.jpg,turm0.jpg,turm2.jpg,,,turm2.jpg,,,,,
2025-10-21T10:51:47.857Z,98c10f9d-03a0-460a-b491-f905269cb2e0,image_pairs_bilingual_v1,trial,html-button-response,1936,bäume.jpg,bäume1.jpg,bäume3.jpg,bäume3.jpg,bäume1.jpg,,,bäume3.jpg,,,,,
2025-10-21T10:51:47.857Z,98c10f9d-03a0-460a-b491-f905269cb2e0,image_pairs_bilingual_v1,trial,html-button-response,2178,hütte.jpg,hütte1.jpg,hütte2.jpg,hütte2.jpg,hütte1.jpg,,,hütte1.jpg,,,,,
2025-10-21T10:51:47.857Z,98c10f9d-03a0-460a-b491-f905269cb2e0,image_pairs_bilingual_v1,trial,html-button-response,2046,weg.jpg,weg0.jpg,weg3.jpg,weg3.jpg,weg0.jpg,,,weg3.jpg,,,,,
2025-10-21T10:51:47.857Z,98c10f9d-03a0-460a-b491-f905269cb2e0,image_pairs_bilingual_v1,trial,html-button-response,5289,hütte.jpg,hütte1.jpg,hütte3.jpg,hütte3.jpg,hütte1.jpg,,,hütte3.jpg,,,,,
2025-10-21T10:51:47.857Z,98c10f9d-03a0-460a-b491-f905269cb2e0,image_pairs_bilingual_v1,trial,html-button-response,1526,berg.jpg,berg0.jpg,berg2.jpg,berg0.jpg,berg2.jpg,,,berg2.jpg,,,,,
2025-10-21T10:51:47.857Z,98c10f9d-03a0-460a-b491-f905269cb2e0,image_pairs_bilingual_v1,trial,html-button-response,2075,haus.jpg,haus1.jpg,haus2.jpg,haus2.jpg,haus1.jpg,,,haus2.jpg,,,,,
2025-10-21T10:51:47.857Z,98c10f9d-03a0-460a-b491-f905269cb2e0,image_pairs_bilingual_v1,trial,html-button-response,2214,turm.jpg,turm2.jpg,turm3.jpg,turm3.jpg,turm2.jpg,,,turm3.jpg,,,,,
2025-10-21T10:51:47.857Z,98c10f9d-03a0-460a-b491-f905269cb2e0,image_pairs_bilingual_v1,trial,html-button-response,4099,haus.jpg,haus0.jpg,haus2.jpg,haus0.jpg,haus2.jpg,,,haus2.jpg,,,,,
2025-10-21T10:51:47.857Z,98c10f9d-03a0-460a-b491-f905269cb2e0,image_pairs_bilingual_v1,trial,html-button-response,5322,hütte.jpg,hütte0.jpg,hütte2.jpg,hütte2.jpg,hütte0.jpg,,,hütte0.jpg,,,,,
2025-10-21T10:51:47.857Z,98c10f9d-03a0-460a-b491-f905269cb2e0,image_pairs_bilingual_v1,trial,html-button-response,3151,bahn.jpg,bahn0.jpg,bahn2.jpg,bahn2.jpg,bahn0.jpg,,,bahn2.jpg,,,,,
2025-10-21T10:51:47.857Z,98c10f9d-03a0-460a-b491-f905269cb2e0,image_pairs_bilingual_v1,trial,html-button-response,1565,bäume.jpg,bäume2.jpg,bäume3.jpg,bäume3.jpg,bäume2.jpg,,,bäume3.jpg,,,,,
2025-10-21T10:51:47.857Z,98c10f9d-03a0-460a-b491-f905269cb2e0,image_pairs_bilingual_v1,trial,html-button-response,2213,berge.jpg,berge2.jpg,berge3.jpg,berge3.jpg,berge2.jpg,,,berge3.jpg,,,,,
2025-10-21T10:51:47.857Z,98c10f9d-03a0-460a-b491-f905269cb2e0,image_pairs_bilingual_v1,feedback,survey-html-form,1850,,,,,,,,,,,,,
2025-10-21T12:43:39.313Z,345dabac-4f93-4219-a362-b2016b9f51c0,image_pairs_bilingual_v1,consent,html-button-response,2171,,,,,,,,,,,,,
2025-10-21T12:43:39.313Z,345dabac-4f93-4219-a362-b2016b9f51c0,image_pairs_bilingual_v1,intro,html-button-response,26199,,,,,,,,,,,,,
2025-10-21T12:43:39.313Z,345dabac-4f93-4219-a362-b2016b9f51c0,image_pairs_bilingual_v1,demographics,survey-html-form,6628,,,,,,,,,,,23,w,
2025-10-21T12:43:39.313Z,345dabac-4f93-4219-a362-b2016b9f51c0,image_pairs_bilingual_v1,trial,html-button-response,11004,schnee.jpg,schnee2.jpg,schnee3.jpg,schnee2.jpg,schnee3.jpg,,,schnee3.jpg,,,,,
2025-10-21T12:43:39.313Z,345dabac-4f93-4219-a362-b2016b9f51c0,image_pairs_bilingual_v1,trial,html-button-response,5841,baum.jpg,baum0.jpg,baum3.jpg,baum3.jpg,baum0.jpg,,,baum0.jpg,,,,,
2025-10-21T12:43:39.313Z,345dabac-4f93-4219-a362-b2016b9f51c0,image_pairs_bilingual_v1,trial,html-button-response,4735,berg.jpg,berg0.jpg,berg2.jpg,berg2.jpg,berg0.jpg,,,berg2.jpg,,,,,
2025-10-21T12:43:39.313Z,345dabac-4f93-4219-a362-b2016b9f51c0,image_pairs_bilingual_v1,trial,html-button-response,2465,schnee.jpg,schnee0.jpg,schnee2.jpg,schnee0.jpg,schnee2.jpg,,,schnee2.jpg,,,,,
2025-10-21T12:43:39.313Z,345dabac-4f93-4219-a362-b2016b9f51c0,image_pairs_bilingual_v1,trial,html-button-response,2630,weg.jpg,weg0.jpg,weg2.jpg,weg0.jpg,weg2.jpg,,,weg2.jpg,,,,,
2025-10-21T12:43:39.313Z,345dabac-4f93-4219-a362-b2016b9f51c0,image_pairs_bilingual_v1,trial,html-button-response,2588,hütte.jpg,hütte1.jpg,hütte2.jpg,hütte2.jpg,hütte1.jpg,,,hütte1.jpg,,,,,
2025-10-21T12:43:39.313Z,345dabac-4f93-4219-a362-b2016b9f51c0,image_pairs_bilingual_v1,trial,html-button-response,1559,schnee.jpg,schnee0.jpg,schnee3.jpg,schnee0.jpg,schnee3.jpg,,,schnee3.jpg,,,,,
2025-10-21T12:43:39.313Z,345dabac-4f93-4219-a362-b2016b9f51c0,image_pairs_bilingual_v1,trial,html-button-response,4322,hütte.jpg,hütte0.jpg,hütte3.jpg,hütte3.jpg,hütte0.jpg,,,hütte0.jpg,,,,,
2025-10-21T12:43:39.313Z,345dabac-4f93-4219-a362-b2016b9f51c0,image_pairs_bilingual_v1,trial,html-button-response,3090,haus.jpg,haus0.jpg,haus3.jpg,haus3.jpg,haus0.jpg,,,haus0.jpg,,,,,
2025-10-21T12:43:39.313Z,345dabac-4f93-4219-a362-b2016b9f51c0,image_pairs_bilingual_v1,trial,html-button-response,2120,berg.jpg,berg0.jpg,berg3.jpg,berg3.jpg,berg0.jpg,,,berg3.jpg,,,,,
2025-10-21T12:43:39.313Z,345dabac-4f93-4219-a362-b2016b9f51c0,image_pairs_bilingual_v1,trial,html-button-response,7192,berge.jpg,berge0.jpg,berge3.jpg,berge3.jpg,berge0.jpg,,,berge0.jpg,,,,,
2025-10-21T12:43:39.313Z,345dabac-4f93-4219-a362-b2016b9f51c0,image_pairs_bilingual_v1,trial,html-button-response,2479,weg.jpg,weg1.jpg,weg2.jpg,weg1.jpg,weg2.jpg,,,weg1.jpg,,,,,
2025-10-21T12:43:39.313Z,345dabac-4f93-4219-a362-b2016b9f51c0,image_pairs_bilingual_v1,trial,html-button-response,3241,berg.jpg,berg1.jpg,berg2.jpg,berg1.jpg,berg2.jpg,,,berg2.jpg,,,,,
2025-10-21T12:43:39.313Z,345dabac-4f93-4219-a362-b2016b9f51c0,image_pairs_bilingual_v1,trial,html-button-response,6500,weg.jpg,weg1.jpg,weg3.jpg,weg1.jpg,weg3.jpg,,,weg3.jpg,,,,,
2025-10-21T12:43:39.313Z,345dabac-4f93-4219-a362-b2016b9f51c0,image_pairs_bilingual_v1,trial,html-button-response,5537,bahn.jpg,bahn0.jpg,bahn1.jpg,bahn1.jpg,bahn0.jpg,,,bahn1.jpg,,,,,
2025-10-21T12:43:39.313Z,345dabac-4f93-4219-a362-b2016b9f51c0,image_pairs_bilingual_v1,trial,html-button-response,1501,berge.jpg,berge2.jpg,berge3.jpg,berge2.jpg,berge3.jpg,,,berge3.jpg,,,,,
2025-10-21T12:43:39.313Z,345dabac-4f93-4219-a362-b2016b9f51c0,image_pairs_bilingual_v1,trial,html-button-response,1851,berge.jpg,berge1.jpg,berge3.jpg,berge3.jpg,berge1.jpg,,,berge1.jpg,,,,,
2025-10-21T12:43:39.313Z,345dabac-4f93-4219-a362-b2016b9f51c0,image_pairs_bilingual_v1,trial,html-button-response,3295,turm.jpg,turm0.jpg,turm1.jpg,turm0.jpg,turm1.jpg,,,turm1.jpg,,,,,
2025-10-21T12:43:39.313Z,345dabac-4f93-4219-a362-b2016b9f51c0,image_pairs_bilingual_v1,trial,html-button-response,4664,haus.jpg,haus2.jpg,haus3.jpg,haus2.jpg,haus3.jpg,,,haus2.jpg,,,,,
2025-10-21T12:43:39.313Z,345dabac-4f93-4219-a362-b2016b9f51c0,image_pairs_bilingual_v1,trial,html-button-response,4037,turm.jpg,turm1.jpg,turm2.jpg,turm2.jpg,turm1.jpg,,,turm2.jpg,,,,,
2025-10-21T12:43:39.314Z,345dabac-4f93-4219-a362-b2016b9f51c0,image_pairs_bilingual_v1,trial,html-button-response,2892,hütte.jpg,hütte0.jpg,hütte1.jpg,hütte0.jpg,hütte1.jpg,,,hütte0.jpg,,,,,
2025-10-21T12:43:39.314Z,345dabac-4f93-4219-a362-b2016b9f51c0,image_pairs_bilingual_v1,trial,html-button-response,5504,bäume.jpg,bäume0.jpg,bäume3.jpg,bäume3.jpg,bäume0.jpg,,,bäume3.jpg,,,,,
2025-10-21T12:43:39.314Z,345dabac-4f93-4219-a362-b2016b9f51c0,image_pairs_bilingual_v1,trial,html-button-response,2866,turm.jpg,turm1.jpg,turm3.jpg,turm1.jpg,turm3.jpg,,,turm3.jpg,,,,,
